experiment_name,id,gender,age,trial,condition,effort_level,rating,rt,belief_liking,belief_value
buysell_within2,27389,Female,25,1,Buyer,Low,1.009289322,1.7058,More,More
buysell_within2,27389,Female,25,2,Buyer,Medium,1,1.7275,More,More
buysell_within2,27389,Female,25,3,Buyer,High,1,2.1619,More,More
buysell_within2,27389,Female,25,4,Buyer,Low,1,27.3306,More,More
buysell_within2,27389,Female,25,5,Buyer,High,1,3.56,More,More
buysell_within2,27389,Female,25,6,Buyer,Medium,1,1.5459,More,More
buysell_within2,27389,Female,25,7,Buyer,High,1,1.9122,More,More
buysell_within2,27389,Female,25,8,Buyer,Medium,1,1.3967,More,More
buysell_within2,27389,Female,25,9,Buyer,Low,1.52531265,2.3611,More,More
buysell_within2,27389,Female,25,10,Seller,Medium,1,3.6295,More,More
buysell_within2,27389,Female,25,11,Seller,Low,1,1.7938,More,More
buysell_within2,27389,Female,25,12,Seller,High,1,1.5124,More,More
buysell_within2,27389,Female,25,13,Seller,Medium,1.119979557,1.9662,More,More
buysell_within2,27389,Female,25,14,Seller,High,1.081259019,1.3279,More,More
buysell_within2,27389,Female,25,15,Seller,Low,1,1.762,More,More
buysell_within2,27389,Female,25,16,Seller,High,1.161405724,4.8621,More,More
buysell_within2,27389,Female,25,17,Seller,Low,1,1.9473,More,More
buysell_within2,27389,Female,25,18,Seller,Medium,1.076779702,2.6784,More,More
buysell_within2,37382,Female,23,1,Seller,Low,2.951565256,8.6269,Less,More
buysell_within2,37382,Female,23,2,Seller,Medium,4.008399471,2.6446,Less,More
buysell_within2,37382,Female,23,3,Seller,High,4.986353616,3.2954,Less,More
buysell_within2,37382,Female,23,4,Seller,Low,2.019003527,0.837,Less,More
buysell_within2,37382,Female,23,5,Seller,High,4.936904762,0.9233,Less,More
buysell_within2,37382,Female,23,6,Seller,Medium,3.01856261,2.1699,Less,More
buysell_within2,37382,Female,23,7,Seller,High,3.993099647,3.3128,Less,More
buysell_within2,37382,Female,23,8,Seller,Medium,3.056569665,0.8234,Less,More
buysell_within2,37382,Female,23,9,Seller,Low,1,2.9892,Less,More
buysell_within2,37382,Female,23,10,Buyer,Medium,2.992350088,0.8381,Less,More
buysell_within2,37382,Female,23,11,Buyer,Low,1,3.4975,Less,More
buysell_within2,37382,Female,23,12,Buyer,High,3.007958554,2.4666,Less,More
buysell_within2,37382,Female,23,13,Buyer,Medium,3.013514109,33.746,Less,More
buysell_within2,37382,Female,23,14,Buyer,High,3.991512346,3.0064,Less,More
buysell_within2,37382,Female,23,15,Buyer,Low,1.003637566,4.4918,Less,More
buysell_within2,37382,Female,23,16,Buyer,High,4.995723104,1.1814,Less,More
buysell_within2,37382,Female,23,17,Buyer,Low,1.0039903,15.0267,Less,More
buysell_within2,37382,Female,23,18,Buyer,Medium,1.929100529,13.7847,Less,More
buysell_within2,37574,Female,23,1,Buyer,Low,1.038443507,8.289,More,No Difference
buysell_within2,37574,Female,23,2,Buyer,Medium,1.023441163,3.49,More,No Difference
buysell_within2,37574,Female,23,3,Buyer,High,2.037398374,1.988,More,No Difference
buysell_within2,37574,Female,23,4,Buyer,Low,2.037398374,4.575,More,No Difference
buysell_within2,37574,Female,23,5,Buyer,High,1.022764228,1.106,More,No Difference
buysell_within2,37574,Female,23,6,Buyer,Medium,1.946341463,1.373,More,No Difference
buysell_within2,37574,Female,23,7,Buyer,High,1.985365854,1.139,More,No Difference
buysell_within2,37574,Female,23,8,Buyer,Medium,2.017886179,1.209,More,No Difference
buysell_within2,37574,Female,23,9,Buyer,Low,2.017886179,7.708,More,No Difference
buysell_within2,37574,Female,23,10,Seller,Medium,2.115447154,5.271,More,No Difference
buysell_within2,37574,Female,23,11,Seller,Low,2.583739837,3.876,More,No Difference
buysell_within2,37574,Female,23,12,Seller,High,2.544715447,5.726,More,No Difference
buysell_within2,37574,Female,23,13,Seller,Medium,2.856910569,1.539,More,No Difference
buysell_within2,37574,Female,23,14,Seller,High,3.247154472,1.477,More,No Difference
buysell_within2,37574,Female,23,15,Seller,Low,1.985365854,1.91,More,No Difference
buysell_within2,37574,Female,23,16,Seller,High,3.02601626,2.024,More,No Difference
buysell_within2,37574,Female,23,17,Seller,Low,2.030894309,1.01,More,No Difference
buysell_within2,37574,Female,23,18,Seller,Medium,2.421138211,7.81,More,No Difference
buysell_within2,38897,Male,30,1,Buyer,Low,1,13.68,Less,No Difference
buysell_within2,38897,Male,30,2,Buyer,Medium,1,7.973,Less,No Difference
buysell_within2,38897,Male,30,3,Buyer,High,1,6.3332,Less,No Difference
buysell_within2,38897,Male,30,4,Buyer,Low,1,1.8761,Less,No Difference
buysell_within2,38897,Male,30,5,Buyer,High,1,5.8886,Less,No Difference
buysell_within2,38897,Male,30,6,Buyer,Medium,1,2.1548,Less,No Difference
buysell_within2,38897,Male,30,7,Buyer,High,1,3.6902,Less,No Difference
buysell_within2,38897,Male,30,8,Buyer,Medium,1,3.6016,Less,No Difference
buysell_within2,38897,Male,30,9,Buyer,Low,1,2.6917,Less,No Difference
buysell_within2,38897,Male,30,10,Seller,Medium,5,20.2138,Less,No Difference
buysell_within2,38897,Male,30,11,Seller,Low,5,2.9129,Less,No Difference
buysell_within2,38897,Male,30,12,Seller,High,5,2.2747,Less,No Difference
buysell_within2,38897,Male,30,13,Seller,Medium,5,2.0488,Less,No Difference
buysell_within2,38897,Male,30,14,Seller,High,5,5.4832,Less,No Difference
buysell_within2,38897,Male,30,15,Seller,Low,5,2.5535,Less,No Difference
buysell_within2,38897,Male,30,16,Seller,High,4.943333333,3.4435,Less,No Difference
buysell_within2,38897,Male,30,17,Seller,Low,5,2.1378,Less,No Difference
buysell_within2,38897,Male,30,18,Seller,Medium,5,22.4558,Less,No Difference
buysell_within2,40358,Female,21,1,Seller,Low,5,5.406,Less,More
buysell_within2,40358,Female,21,2,Seller,Medium,5,3.813,Less,More
buysell_within2,40358,Female,21,3,Seller,High,5,3.947,Less,More
buysell_within2,40358,Female,21,4,Seller,Low,5,4.847,Less,More
buysell_within2,40358,Female,21,5,Seller,High,5,4.013,Less,More
buysell_within2,40358,Female,21,6,Seller,Medium,5,3.529,Less,More
buysell_within2,40358,Female,21,7,Seller,High,5,3.245,Less,More
buysell_within2,40358,Female,21,8,Seller,Medium,5,2.612,Less,More
buysell_within2,40358,Female,21,9,Seller,Low,5,3.279,Less,More
buysell_within2,40358,Female,21,10,Buyer,Medium,1,9.645,Less,More
buysell_within2,40358,Female,21,11,Buyer,Low,2.525925926,8.279,Less,More
buysell_within2,40358,Female,21,12,Buyer,High,1,2.513,Less,More
buysell_within2,40358,Female,21,13,Buyer,Medium,1,3.163,Less,More
buysell_within2,40358,Female,21,14,Buyer,High,1.216296296,4.615,Less,More
buysell_within2,40358,Female,21,15,Buyer,Low,1,2.129,Less,More
buysell_within2,40358,Female,21,16,Buyer,High,1,2.364,Less,More
buysell_within2,40358,Female,21,17,Buyer,Low,1,4.414,Less,More
buysell_within2,40358,Female,21,18,Buyer,Medium,1,2.382,Less,More
buysell_within2,40543,Female,21,1,Seller,Low,2.514212963,16.2687,Less,More
buysell_within2,40543,Female,21,2,Seller,Medium,3.500578704,9.3281,Less,More
buysell_within2,40543,Female,21,3,Seller,High,4.030763889,7.9634,Less,More
buysell_within2,40543,Female,21,4,Seller,Low,2.542731481,8.5018,Less,More
buysell_within2,40543,Female,21,5,Seller,High,2.994976852,4.0024,Less,More
buysell_within2,40543,Female,21,6,Seller,Medium,2.001041667,3.5287,Less,More
buysell_within2,40543,Female,21,7,Seller,High,4.030578704,3.5514,Less,More
buysell_within2,40543,Female,21,8,Seller,Medium,3.995138889,5.0637,Less,More
buysell_within2,40543,Female,21,9,Seller,Low,2.041527778,5.552,Less,More
buysell_within2,40543,Female,21,10,Buyer,Medium,1.243935185,8.7345,Less,More
buysell_within2,40543,Female,21,11,Buyer,Low,1.337268519,2.8098,Less,More
buysell_within2,40543,Female,21,12,Buyer,High,2.341967593,9.7149,Less,More
buysell_within2,40543,Female,21,13,Buyer,Medium,3.016018519,3.1802,Less,More
buysell_within2,40543,Female,21,14,Buyer,High,2.012824074,5.1639,Less,More
buysell_within2,40543,Female,21,15,Buyer,Low,2.735902778,3.3193,Less,More
buysell_within2,40543,Female,21,16,Buyer,High,1.689212963,7.2028,Less,More
buysell_within2,40543,Female,21,17,Buyer,Low,2.508842593,6.3141,Less,More
buysell_within2,40543,Female,21,18,Buyer,Medium,1.79400463,4.4019,Less,More
buysell_within2,40590,Female,21,1,Buyer,Low,1.011766803,7.7779,Less,More
buysell_within2,40590,Female,21,2,Buyer,Medium,1,7.331,Less,More
buysell_within2,40590,Female,21,3,Buyer,High,1,4.4823,Less,More
buysell_within2,40590,Female,21,4,Buyer,Low,1,3.0605,Less,More
buysell_within2,40590,Female,21,5,Buyer,High,1,3.4635,Less,More
buysell_within2,40590,Female,21,6,Buyer,Medium,1,2.1156,Less,More
buysell_within2,40590,Female,21,7,Buyer,High,1,3.6594,Less,More
buysell_within2,40590,Female,21,8,Buyer,Medium,1,2.866,Less,More
buysell_within2,40590,Female,21,9,Buyer,Low,1,3.483,Less,More
buysell_within2,40590,Female,21,10,Seller,Medium,1.498840216,9.4319,Less,More
buysell_within2,40590,Female,21,11,Seller,Low,1.500518043,2.0982,Less,More
buysell_within2,40590,Female,21,12,Seller,High,1.781040737,2.6815,Less,More
buysell_within2,40590,Female,21,13,Seller,Medium,1.842147507,7.6642,Less,More
buysell_within2,40590,Female,21,14,Seller,High,1.76249845,5.2494,Less,More
buysell_within2,40590,Female,21,15,Seller,Low,1.716842758,1.8193,Less,More
buysell_within2,40590,Female,21,16,Seller,High,1.775611979,3.016,Less,More
buysell_within2,40590,Female,21,17,Seller,Low,1.570458829,1.5198,Less,More
buysell_within2,40590,Female,21,18,Seller,Medium,1.59031467,4.0198,Less,More
buysell_within2,40795,Female,21,1,Buyer,Low,1,8.479,Less,More
buysell_within2,40795,Female,21,2,Buyer,Medium,2.063703704,2.475,Less,More
buysell_within2,40795,Female,21,3,Buyer,High,1.957037037,1.581,Less,More
buysell_within2,40795,Female,21,4,Buyer,Low,3.023703704,2.413,Less,More
buysell_within2,40795,Female,21,5,Buyer,High,1.968888889,2.163,Less,More
buysell_within2,40795,Female,21,6,Buyer,Medium,1.477037037,2.997,Less,More
buysell_within2,40795,Female,21,7,Buyer,High,1,1.65,Less,More
buysell_within2,40795,Female,21,8,Buyer,Medium,1.773333333,1.813,Less,More
buysell_within2,40795,Female,21,9,Buyer,Low,3.13037037,1.48,Less,More
buysell_within2,40795,Female,21,10,Seller,Medium,3.077037037,2.344,Less,More
buysell_within2,40795,Female,21,11,Seller,Low,3.912592593,1.097,Less,More
buysell_within2,40795,Female,21,12,Seller,High,2.928888889,4.897,Less,More
buysell_within2,40795,Female,21,13,Seller,Medium,2.608888889,2.164,Less,More
buysell_within2,40795,Female,21,14,Seller,High,3.942222222,3.398,Less,More
buysell_within2,40795,Female,21,15,Seller,Low,1.927407407,1.215,Less,More
buysell_within2,40795,Female,21,16,Seller,High,1.986666667,2.28,Less,More
buysell_within2,40795,Female,21,17,Seller,Low,2.478518519,2.281,Less,More
buysell_within2,40795,Female,21,18,Seller,Medium,1.962962963,1.164,Less,More
buysell_within2,40956,Female,21,1,Seller,Low,2.014143519,6.772,More,More
buysell_within2,40956,Female,21,2,Seller,Medium,1.044606481,3.8626,More,More
buysell_within2,40956,Female,21,3,Seller,High,2.961643519,3.3282,More,More
buysell_within2,40956,Female,21,4,Seller,Low,4.916435185,3.9946,More,More
buysell_within2,40956,Female,21,5,Seller,High,4.950555556,1.4785,More,More
buysell_within2,40956,Female,21,6,Seller,Medium,4.993773148,1.7458,More,More
buysell_within2,40956,Female,21,7,Seller,High,4.96224537,15.813,More,More
buysell_within2,40956,Female,21,8,Seller,Medium,3.048472222,12.0452,More,More
buysell_within2,40956,Female,21,9,Seller,Low,2.039050926,2.5786,More,More
buysell_within2,40956,Female,21,10,Buyer,Medium,3.985046296,2.4617,More,More
buysell_within2,40956,Female,21,11,Buyer,Low,3.11900463,7.2118,More,More
buysell_within2,40956,Female,21,12,Buyer,High,4.956178161,4.1563,More,More
buysell_within2,40956,Female,21,13,Buyer,Medium,4.034277504,4.6444,More,More
buysell_within2,40956,Female,21,14,Buyer,High,4.025785099,1.5621,More,More
buysell_within2,40956,Female,21,15,Buyer,Low,1.047542077,1.1615,More,More
buysell_within2,40956,Female,21,16,Buyer,High,4.040152915,2.18,More,More
buysell_within2,40956,Female,21,17,Buyer,Low,1.053135263,2.4291,More,More
buysell_within2,40956,Female,21,18,Buyer,Medium,2.977652915,1.4936,More,More
buysell_within2,41609,Female,21,1,Seller,Low,1,3.9917,More,More
buysell_within2,41609,Female,21,2,Seller,Medium,1.988839286,1.263,More,More
buysell_within2,41609,Female,21,3,Seller,High,3.967492816,1.879,More,More
buysell_within2,41609,Female,21,4,Seller,Low,1.007517447,1.5342,More,More
buysell_within2,41609,Female,21,5,Seller,High,2.229448892,1.5456,More,More
buysell_within2,41609,Female,21,6,Seller,Medium,2.660380747,2.2799,More,More
buysell_within2,41609,Female,21,7,Seller,High,1.968390805,1.8796,More,More
buysell_within2,41609,Female,21,8,Seller,Medium,1.404428366,1.718,More,More
buysell_within2,41609,Female,21,9,Seller,Low,1,1.8133,More,More
buysell_within2,41609,Female,21,10,Buyer,Medium,1,3.2293,More,More
buysell_within2,41609,Female,21,11,Buyer,Low,1,4.8121,More,More
buysell_within2,41609,Female,21,12,Buyer,High,2.044463259,12.6309,More,More
buysell_within2,41609,Female,21,13,Buyer,Medium,2.033482143,9.1976,More,More
buysell_within2,41609,Female,21,14,Buyer,High,3.044232348,2.0788,More,More
buysell_within2,41609,Female,21,15,Buyer,Low,1,1.9786,More,More
buysell_within2,41609,Female,21,16,Buyer,High,2.887982348,1.869,More,More
buysell_within2,41609,Female,21,17,Buyer,Low,2.427776067,4.0155,More,More
buysell_within2,41609,Female,21,18,Buyer,Medium,1.905146757,5.4483,More,More
buysell_within2,41628,Female,21,1,Seller,Low,1.987106481,6.0378,Less,More
buysell_within2,41628,Female,21,2,Seller,Medium,4.536087963,5.8194,Less,More
buysell_within2,41628,Female,21,3,Seller,High,3.998310185,6.8519,Less,More
buysell_within2,41628,Female,21,4,Seller,Low,2.450416667,3.5741,Less,More
buysell_within2,41628,Female,21,5,Seller,High,2.414537037,14.6079,Less,More
buysell_within2,41628,Female,21,6,Seller,Medium,2.631203704,2.8796,Less,More
buysell_within2,41628,Female,21,7,Seller,High,3.055486111,2.7451,Less,More
buysell_within2,41628,Female,21,8,Seller,Medium,1.973217593,2.0114,Less,More
buysell_within2,41628,Female,21,9,Seller,Low,1.543402778,2.5535,Less,More
buysell_within2,41628,Female,21,10,Buyer,Medium,2.024768519,3.1692,Less,More
buysell_within2,41628,Female,21,11,Buyer,Low,1.617708333,16.7128,Less,More
buysell_within2,41628,Female,21,12,Buyer,High,2.501064815,3.0385,Less,More
buysell_within2,41628,Female,21,13,Buyer,Medium,1.51775463,3.1194,Less,More
buysell_within2,41628,Female,21,14,Buyer,High,1.966736111,14.5052,Less,More
buysell_within2,41628,Female,21,15,Buyer,Low,1.083148148,1.3017,Less,More
buysell_within2,41628,Female,21,16,Buyer,High,2.512592593,16.4536,Less,More
buysell_within2,41628,Female,21,17,Buyer,Low,1.528148148,15.0631,Less,More
buysell_within2,41628,Female,21,18,Buyer,Medium,1.414259259,3.4093,Less,More
buysell_within2,42185,Female,22,1,Seller,Low,4.331986351,2.6249,Less,Less
buysell_within2,42185,Female,22,2,Seller,Medium,5,2.6965,Less,Less
buysell_within2,42185,Female,22,3,Seller,High,1.857070163,2.4123,Less,Less
buysell_within2,42185,Female,22,4,Seller,Low,2.078484195,1.2796,Less,Less
buysell_within2,42185,Female,22,5,Seller,High,5,1.8784,Less,Less
buysell_within2,42185,Female,22,6,Seller,Medium,3.818396791,2.0519,Less,Less
buysell_within2,42185,Female,22,7,Seller,High,5,1.0131,Less,Less
buysell_within2,42185,Female,22,8,Seller,Medium,4.058967912,1.1791,Less,Less
buysell_within2,42185,Female,22,9,Seller,Low,3.166187739,1.4526,Less,Less
buysell_within2,42185,Female,22,10,Buyer,Medium,2.786188937,1.911,Less,Less
buysell_within2,42185,Female,22,11,Buyer,Low,2.663403975,1.7144,Less,Less
buysell_within2,42185,Female,22,12,Buyer,High,5,3.8786,Less,Less
buysell_within2,42185,Female,22,13,Buyer,Medium,2.927292864,2.4188,Less,Less
buysell_within2,42185,Female,22,14,Buyer,High,2.513709291,1.4443,Less,Less
buysell_within2,42185,Female,22,15,Buyer,Low,3.152687979,5.0695,Less,Less
buysell_within2,42185,Female,22,16,Buyer,High,2.056094349,1.7479,Less,Less
buysell_within2,42185,Female,22,17,Buyer,Low,1.681992337,1.3642,Less,Less
buysell_within2,42185,Female,22,18,Buyer,Medium,2.215786638,1.298,Less,Less
buysell_within2,42195,Female,21,1,Buyer,Low,1,7.9624,More,More
buysell_within2,42195,Female,21,2,Buyer,Medium,1.890856481,1.9527,More,More
buysell_within2,42195,Female,21,3,Buyer,High,3.96162037,3.4655,More,More
buysell_within2,42195,Female,21,4,Buyer,Low,1.875,2.7961,More,More
buysell_within2,42195,Female,21,5,Buyer,High,2.490625,1.1749,More,More
buysell_within2,42195,Female,21,6,Buyer,Medium,3.049444444,2.6216,More,More
buysell_within2,42195,Female,21,7,Buyer,High,1.730347222,10.3689,More,More
buysell_within2,42195,Female,21,8,Buyer,Medium,1.696134259,1.7645,More,More
buysell_within2,42195,Female,21,9,Buyer,Low,2.104444444,1.303,More,More
buysell_within2,42195,Female,21,10,Seller,Medium,2.493842593,1.6936,More,More
buysell_within2,42195,Female,21,11,Seller,Low,1.774490741,2.1464,More,More
buysell_within2,42195,Female,21,12,Seller,High,3.109652778,2.6599,More,More
buysell_within2,42195,Female,21,13,Seller,Medium,2.451041667,1.8456,More,More
buysell_within2,42195,Female,21,14,Seller,High,3.449027778,1.4632,More,More
buysell_within2,42195,Female,21,15,Seller,Low,1.552060185,2.1539,More,More
buysell_within2,42195,Female,21,16,Seller,High,3.089930556,2.6699,More,More
buysell_within2,42195,Female,21,17,Seller,Low,1.523425926,1.2847,More,More
buysell_within2,42195,Female,21,18,Seller,Medium,2.223634259,2.0637,More,More
buysell_within2,42213,Female,21,1,Buyer,Low,1.014814777,8.464,More,More
buysell_within2,42213,Female,21,2,Buyer,Medium,1,4.0007,More,More
buysell_within2,42213,Female,21,3,Buyer,High,1.009876581,4.66,More,More
buysell_within2,42213,Female,21,4,Buyer,Low,1.987654321,5.1186,More,More
buysell_within2,42213,Female,21,5,Buyer,High,2.945679088,2.9169,More,More
buysell_within2,42213,Female,21,6,Buyer,Medium,1,1.6004,More,More
buysell_within2,42213,Female,21,7,Buyer,High,2.644444595,6.3328,More,More
buysell_within2,42213,Female,21,8,Buyer,Medium,2.116049307,3.6657,More,More
buysell_within2,42213,Female,21,9,Buyer,Low,2.925925926,2.4984,More,More
buysell_within2,42213,Female,21,10,Seller,Medium,2.012345679,5.647,More,More
buysell_within2,42213,Female,21,11,Seller,Low,1.444444444,1.801,More,More
buysell_within2,42213,Female,21,12,Seller,High,3.45925941,3.9976,More,More
buysell_within2,42213,Female,21,13,Seller,Medium,3.039506324,2.9815,More,More
buysell_within2,42213,Female,21,14,Seller,High,2.935802695,4.1643,More,More
buysell_within2,42213,Female,21,15,Seller,Low,2.239506097,6.3663,More,More
buysell_within2,42213,Female,21,16,Seller,High,3.12345679,3.2341,More,More
buysell_within2,42213,Female,21,17,Seller,Low,1.079012459,1.6924,More,More
buysell_within2,42213,Female,21,18,Seller,Medium,1.82962978,1.9396,More,More
buysell_within2,42252,Female,21,1,Buyer,Low,1.02680776,4.1298,Less,More
buysell_within2,42252,Female,21,2,Buyer,Medium,1,4.8513,Less,More
buysell_within2,42252,Female,21,3,Buyer,High,1.37925485,1.6948,Less,More
buysell_within2,42252,Female,21,4,Buyer,Low,1.605004409,3.38,Less,More
buysell_within2,42252,Female,21,5,Buyer,High,1.758708113,4.5357,Less,More
buysell_within2,42252,Female,21,6,Buyer,Medium,1.991997354,6.8311,Less,More
buysell_within2,42252,Female,21,7,Buyer,High,3.012147266,3.1393,Less,More
buysell_within2,42252,Female,21,8,Buyer,Medium,2.008179012,3.7526,Less,More
buysell_within2,42252,Female,21,9,Buyer,Low,3.992702822,2.1219,Less,More
buysell_within2,42252,Female,21,10,Seller,Medium,2.993209877,8.1202,Less,More
buysell_within2,42252,Female,21,11,Seller,Low,1,2.3019,Less,More
buysell_within2,42252,Female,21,12,Seller,High,4.924647266,0.7867,Less,More
buysell_within2,42252,Female,21,13,Seller,Medium,3.010978836,6.4353,Less,More
buysell_within2,42252,Female,21,14,Seller,High,3.005820106,5.0498,Less,More
buysell_within2,42252,Female,21,15,Seller,Low,1.691159612,4.1432,Less,More
buysell_within2,42252,Female,21,16,Seller,High,3.018276014,4.0686,Less,More
buysell_within2,42252,Female,21,17,Seller,Low,1.677270723,2.9691,Less,More
buysell_within2,42252,Female,21,18,Seller,Medium,2.642548501,6.1812,Less,More
buysell_within2,42288,Female,21,1,Buyer,Low,4.265949074,1.8045,More,No Difference
buysell_within2,42288,Female,21,2,Buyer,Medium,3.166643519,1.7956,More,No Difference
buysell_within2,42288,Female,21,3,Buyer,High,1,3.1781,More,No Difference
buysell_within2,42288,Female,21,4,Buyer,Low,5,3.9957,More,No Difference
buysell_within2,42288,Female,21,5,Buyer,High,1.404467593,1.9961,More,No Difference
buysell_within2,42288,Female,21,6,Buyer,Medium,1,1.4792,More,No Difference
buysell_within2,42288,Female,21,7,Buyer,High,1.848287037,3.5798,More,No Difference
buysell_within2,42288,Female,21,8,Buyer,Medium,1.452430556,1.8444,More,No Difference
buysell_within2,42288,Female,21,9,Buyer,Low,1.178680556,1.6448,More,No Difference
buysell_within2,42288,Female,21,10,Seller,Medium,1.208611111,1.4627,More,No Difference
buysell_within2,42288,Female,21,11,Seller,Low,1.701111111,2.9791,More,No Difference
buysell_within2,42288,Female,21,12,Seller,High,2.227037037,5.1455,More,No Difference
buysell_within2,42288,Female,21,13,Seller,Medium,2.164606481,1.3472,More,No Difference
buysell_within2,42288,Female,21,14,Seller,High,1.508472222,1.3125,More,No Difference
buysell_within2,42288,Female,21,15,Seller,Low,2.922962963,1.2796,More,No Difference
buysell_within2,42288,Female,21,16,Seller,High,2.349884259,1.2949,More,No Difference
buysell_within2,42288,Female,21,17,Seller,Low,3.646805556,0.9143,More,No Difference
buysell_within2,42288,Female,21,18,Seller,Medium,2.652314815,0.9633,More,No Difference
buysell_within2,42400,Female,21,1,Buyer,Low,1,6.3965,More,More
buysell_within2,42400,Female,21,2,Buyer,Medium,2.939311594,4.8113,More,More
buysell_within2,42400,Female,21,3,Buyer,High,2.024116848,0.7468,More,More
buysell_within2,42400,Female,21,4,Buyer,Low,1.829461051,1.8511,More,More
buysell_within2,42400,Female,21,5,Buyer,High,3.573052536,2.0946,More,More
buysell_within2,42400,Female,21,6,Buyer,Medium,2.789923007,2.7998,More,More
buysell_within2,42400,Female,21,7,Buyer,High,3.25611413,7.1453,More,More
buysell_within2,42400,Female,21,8,Buyer,Medium,2.547576993,3.3723,More,More
buysell_within2,42400,Female,21,9,Buyer,Low,1.675792572,3.5215,More,More
buysell_within2,42400,Female,21,10,Seller,Medium,5,2.5439,More,More
buysell_within2,42400,Female,21,11,Seller,Low,4.018523551,1.7875,More,More
buysell_within2,42400,Female,21,12,Seller,High,4.87669837,1.0288,More,More
buysell_within2,42400,Female,21,13,Seller,Medium,5,2.7774,More,More
buysell_within2,42400,Female,21,14,Seller,High,4.989356884,2.7851,More,More
buysell_within2,42400,Female,21,15,Seller,Low,4.136707428,2.0466,More,More
buysell_within2,42400,Female,21,16,Seller,High,4.969995471,1.3524,More,More
buysell_within2,42400,Female,21,17,Seller,Low,3.230751812,3.5036,More,More
buysell_within2,42400,Female,21,18,Seller,Medium,4.885711051,1.8469,More,More
buysell_within2,42825,Female,21,1,Buyer,Low,1.016296296,11.1538,No Difference,More
buysell_within2,42825,Female,21,2,Buyer,Medium,1.492476852,3.7635,No Difference,More
buysell_within2,42825,Female,21,3,Buyer,High,1,3.3469,No Difference,More
buysell_within2,42825,Female,21,4,Buyer,Low,1.078912037,2.9965,No Difference,More
buysell_within2,42825,Female,21,5,Buyer,High,1.166412037,1.9451,No Difference,More
buysell_within2,42825,Female,21,6,Buyer,Medium,1.171944444,4.5964,No Difference,More
buysell_within2,42825,Female,21,7,Buyer,High,1.304768519,2.4126,No Difference,More
buysell_within2,42825,Female,21,8,Buyer,Medium,1.514305556,3.5141,No Difference,More
buysell_within2,42825,Female,21,9,Buyer,Low,1.159513889,4.1797,No Difference,More
buysell_within2,42825,Female,21,10,Seller,Medium,2.64837963,4.3964,No Difference,More
buysell_within2,42825,Female,21,11,Seller,Low,1.456990741,2.4963,No Difference,More
buysell_within2,42825,Female,21,12,Seller,High,1.673935185,2.3795,No Difference,More
buysell_within2,42825,Female,21,13,Seller,Medium,1.555347222,1.6807,No Difference,More
buysell_within2,42825,Female,21,14,Seller,High,1.648912037,3.5789,No Difference,More
buysell_within2,42825,Female,21,15,Seller,Low,1.262199074,3.2622,No Difference,More
buysell_within2,42825,Female,21,16,Seller,High,1.398194444,2.4462,No Difference,More
buysell_within2,42825,Female,21,17,Seller,Low,1.576574074,1.7482,No Difference,More
buysell_within2,42825,Female,21,18,Seller,Medium,1.863032407,7.8816,No Difference,More
buysell_within2,43393,Female,21,1,Buyer,Low,1.029876052,4.5998,More,More
buysell_within2,43393,Female,21,2,Buyer,Medium,1.465232304,4.9035,More,More
buysell_within2,43393,Female,21,3,Buyer,High,1.9799657,5.3028,More,More
buysell_within2,43393,Female,21,4,Buyer,Low,1,21.4559,More,More
buysell_within2,43393,Female,21,5,Buyer,High,1.969987527,3.6848,More,More
buysell_within2,43393,Female,21,6,Buyer,Medium,1.303028531,4.5556,More,More
buysell_within2,43393,Female,21,7,Buyer,High,1.435979888,6.1386,More,More
buysell_within2,43393,Female,21,8,Buyer,Medium,1,21.8352,More,More
buysell_within2,43393,Female,21,9,Buyer,Low,1,14.4851,More,More
buysell_within2,43393,Female,21,10,Seller,Medium,4.005515279,3.5869,More,More
buysell_within2,43393,Female,21,11,Seller,Low,2.994601653,2.2028,More,More
buysell_within2,43393,Female,21,12,Seller,High,4.44498363,2.3534,More,More
buysell_within2,43393,Female,21,13,Seller,Medium,4.019215778,2.2382,More,More
buysell_within2,43393,Female,21,14,Seller,High,5,11.4527,More,More
buysell_within2,43393,Female,21,15,Seller,Low,2.956949641,1.5204,More,More
buysell_within2,43393,Female,21,16,Seller,High,5,1.2023,More,More
buysell_within2,43393,Female,21,17,Seller,Low,2.991269099,0.654,More,More
buysell_within2,43393,Female,21,18,Seller,Medium,3.44515896,13.0319,More,More
buysell_within2,43457,Female,21,1,Buyer,Low,2.041975233,7.6334,No Difference,Less
buysell_within2,43457,Female,21,2,Buyer,Medium,2.501234643,3.1472,No Difference,Less
buysell_within2,43457,Female,21,3,Buyer,High,1.004938385,3.0349,No Difference,Less
buysell_within2,43457,Female,21,4,Buyer,Low,1.508642126,2.4964,No Difference,Less
buysell_within2,43457,Female,21,5,Buyer,High,1.765432099,3.919,No Difference,Less
buysell_within2,43457,Female,21,6,Buyer,Medium,2.170370596,6.8903,No Difference,Less
buysell_within2,43457,Female,21,7,Buyer,High,3.266666742,2.1353,No Difference,Less
buysell_within2,43457,Female,21,8,Buyer,Medium,4.007407483,5.9296,No Difference,Less
buysell_within2,43457,Female,21,9,Buyer,Low,3.192592668,7.4007,No Difference,Less
buysell_within2,43457,Female,21,10,Seller,Medium,4.516049609,10.4326,No Difference,Less
buysell_within2,43457,Female,21,11,Seller,Low,4.575308717,3.6969,No Difference,Less
buysell_within2,43457,Female,21,13,Seller,Medium,3.977777928,5.1973,No Difference,Less
buysell_within2,43457,Female,21,14,Seller,High,4.965432249,3.648,No Difference,Less
buysell_within2,43457,Female,21,15,Seller,Low,4.738271454,2.2671,No Difference,Less
buysell_within2,43457,Female,21,17,Seller,Low,4.955555857,3.6659,No Difference,Less
buysell_within2,43457,Female,21,18,Seller,Medium,4.975308642,1.5647,No Difference,Less
buysell_within2,43973,Female,22,1,Seller,Low,3.003238225,6.4274,No Difference,More
buysell_within2,43973,Female,22,2,Seller,Medium,3.997916667,3.9468,No Difference,More
buysell_within2,43973,Female,22,3,Seller,High,4.874569746,1.5637,No Difference,More
buysell_within2,43973,Female,22,4,Seller,Low,2.990987319,1.3291,No Difference,More
buysell_within2,43973,Female,22,5,Seller,High,3.998369565,2.3956,No Difference,More
buysell_within2,43973,Female,22,6,Seller,Medium,4.037115036,3.1131,No Difference,More
buysell_within2,43973,Female,22,7,Seller,High,4.981680254,3.5813,No Difference,More
buysell_within2,43973,Female,22,8,Seller,Medium,3.517821558,4.9464,No Difference,More
buysell_within2,43973,Female,22,9,Seller,Low,2.490398551,2.8798,No Difference,More
buysell_within2,43973,Female,22,10,Buyer,Medium,3.998143116,4.9448,No Difference,More
buysell_within2,43973,Female,22,11,Buyer,Low,3.00611413,3.1955,No Difference,More
buysell_within2,43973,Female,22,12,Buyer,High,2.991077899,2.6786,No Difference,More
buysell_within2,43973,Female,22,13,Buyer,Medium,2.981838768,7.7141,No Difference,More
buysell_within2,43973,Female,22,14,Buyer,High,2.976721014,2.9294,No Difference,More
buysell_within2,43973,Female,22,15,Buyer,Low,3.522735507,11.287,No Difference,More
buysell_within2,43973,Female,22,16,Buyer,High,2.42647192,5.4802,No Difference,More
buysell_within2,43973,Female,22,17,Buyer,Low,2.473460145,6.8975,No Difference,More
buysell_within2,43973,Female,22,18,Buyer,Medium,2.991168478,5.4137,No Difference,More
buysell_within2,44117,Female,21,1,Buyer,Low,2.456828704,45.8744,More,More
buysell_within2,44117,Female,21,2,Buyer,Medium,1.523217593,4.0502,More,More
buysell_within2,44117,Female,21,3,Buyer,High,3.501388889,2.5195,More,More
buysell_within2,44117,Female,21,4,Buyer,Low,3.372199074,7.0282,More,More
buysell_within2,44117,Female,21,5,Buyer,High,1.540046296,39.3779,More,More
buysell_within2,44117,Female,21,6,Buyer,Medium,3.4225,6.2129,More,More
buysell_within2,44117,Female,21,7,Buyer,High,3.329282407,23.9023,More,More
buysell_within2,44117,Female,21,8,Buyer,Medium,2.542175926,7.1352,More,More
buysell_within2,44117,Female,21,9,Buyer,Low,4.456712963,2.1521,More,More
buysell_within2,44117,Female,21,10,Seller,Medium,2.511550926,2.6751,More,More
buysell_within2,44117,Female,21,11,Seller,Low,2.484421296,5.8615,More,More
buysell_within2,44117,Female,21,12,Seller,High,3.522708333,2.1241,More,More
buysell_within2,44117,Female,21,13,Seller,Medium,2.38162037,1.9115,More,More
buysell_within2,44117,Female,21,14,Seller,High,1.589699074,2.5497,More,More
buysell_within2,44117,Female,21,15,Seller,Low,4.628449074,2.5699,More,More
buysell_within2,44117,Female,21,16,Seller,High,3.413796296,1.9869,More,More
buysell_within2,44117,Female,21,17,Seller,Low,2.450717593,2.7617,More,More
buysell_within2,44117,Female,21,18,Seller,Medium,2.970023148,2.548,More,More
buysell_within2,44132,Female,21,1,Seller,Low,4.050958392,3.689,More,More
buysell_within2,44132,Female,21,2,Seller,Medium,3.654511454,2.995,More,More
buysell_within2,44132,Female,21,3,Seller,High,2.599812997,2.579,More,More
buysell_within2,44132,Female,21,4,Seller,Low,2.816736793,2.113,More,More
buysell_within2,44132,Female,21,5,Seller,High,2.719495091,2.697,More,More
buysell_within2,44132,Female,21,6,Seller,Medium,3.130902291,1.329,More,More
buysell_within2,44132,Female,21,7,Seller,High,3.317905563,2.681,More,More
buysell_within2,44132,Female,21,8,Seller,Medium,2.816736793,3.661,More,More
buysell_within2,44132,Female,21,9,Seller,Low,2.21084619,2.162,More,More
buysell_within2,44132,Female,21,10,Buyer,Medium,1.919121085,7.596,More,More
buysell_within2,44132,Female,21,11,Buyer,Low,1.829359514,3.112,More,More
buysell_within2,44132,Female,21,12,Buyer,High,1.567554932,2.229,More,More
buysell_within2,44132,Female,21,13,Buyer,Medium,2.525011688,2.313,More,More
buysell_within2,44132,Female,21,14,Buyer,High,1,3.445,More,More
buysell_within2,44132,Female,21,15,Buyer,Low,3.048620851,1.797,More,More
buysell_within2,44132,Female,21,16,Buyer,High,2.330528284,2.528,More,More
buysell_within2,44132,Female,21,17,Buyer,Low,2.899018233,2.062,More,More
buysell_within2,44132,Female,21,18,Buyer,Medium,2.345488546,3.861,More,More
buysell_within2,44179,Female,21,1,Buyer,Low,2.458908046,10.3104,More,More
buysell_within2,44179,Female,21,2,Buyer,Medium,3.712385057,1.5223,More,More
buysell_within2,44179,Female,21,3,Buyer,High,2.99566092,4.2701,More,More
buysell_within2,44179,Female,21,4,Buyer,Low,1.35704023,2.5797,More,More
buysell_within2,44179,Female,21,5,Buyer,High,3.427902299,2.7037,More,More
buysell_within2,44179,Female,21,6,Buyer,Medium,2.020172414,1.4144,More,More
buysell_within2,44179,Female,21,7,Buyer,High,3.407586207,2.7897,More,More
buysell_within2,44179,Female,21,8,Buyer,Medium,3.015086207,3.7123,More,More
buysell_within2,44179,Female,21,9,Buyer,Low,2.537011494,3.5791,More,More
buysell_within2,44179,Female,21,10,Seller,Medium,3.589166667,2.1278,More,More
buysell_within2,44179,Female,21,11,Seller,Low,1.599396552,10.4713,More,More
buysell_within2,44179,Female,21,12,Seller,High,3.473965517,2.3133,More,More
buysell_within2,44179,Female,21,13,Seller,Medium,3.496465517,1.7068,More,More
buysell_within2,44179,Female,21,14,Seller,High,3.446206897,2.6869,More,More
buysell_within2,44179,Female,21,15,Seller,Low,3.030201149,2.8417,More,More
buysell_within2,44179,Female,21,16,Seller,High,4.043850575,2.18,More,More
buysell_within2,44179,Female,21,17,Seller,Low,1.444137931,1.3035,More,More
buysell_within2,44179,Female,21,18,Seller,Medium,2.626724138,3.6191,More,More
buysell_within2,44781,Female,21,1,Buyer,Low,1.307777778,10.8841,More,More
buysell_within2,44781,Female,21,2,Buyer,Medium,1.723773148,17.4435,More,More
buysell_within2,44781,Female,21,3,Buyer,High,2.230787037,2.1444,More,More
buysell_within2,44781,Female,21,4,Buyer,Low,2.734074074,2.1108,More,More
buysell_within2,44781,Female,21,5,Buyer,High,2.573333333,2.3452,More,More
buysell_within2,44781,Female,21,6,Buyer,Medium,2.969930556,1.4437,More,More
buysell_within2,44781,Female,21,7,Buyer,High,2.202037037,5.8287,More,More
buysell_within2,44781,Female,21,8,Buyer,Medium,3.729884259,2.9965,More,More
buysell_within2,44781,Female,21,9,Buyer,Low,4.197592593,2.2504,More,More
buysell_within2,44781,Female,21,10,Seller,Medium,3.528912037,4.2491,More,More
buysell_within2,44781,Female,21,11,Seller,Low,2.993148148,5.7788,More,More
buysell_within2,44781,Female,21,12,Seller,High,4.390509259,3.4779,More,More
buysell_within2,44781,Female,21,13,Seller,Medium,2.198935185,6.446,More,More
buysell_within2,44781,Female,21,14,Seller,High,3.153333333,2.4626,More,More
buysell_within2,44781,Female,21,15,Seller,Low,1.992523148,2.584,More,More
buysell_within2,44781,Female,21,16,Seller,High,3.800069444,1.8457,More,More
buysell_within2,44781,Female,21,17,Seller,Low,1.733217593,0.9128,More,More
buysell_within2,44781,Female,21,18,Seller,Medium,2.235486111,3.1273,More,More
buysell_within2,45012,Female,20,1,Buyer,Low,1,10.473,More,More
buysell_within2,45012,Female,20,2,Buyer,Medium,1,11.156,More,More
buysell_within2,45012,Female,20,3,Buyer,High,2.029276896,3.235,More,More
buysell_within2,45012,Female,20,4,Buyer,Low,1.487477954,3.898,More,More
buysell_within2,45012,Female,20,5,Buyer,High,1,2.431,More,More
buysell_within2,45012,Female,20,6,Buyer,Medium,2.44691358,7.392,More,More
buysell_within2,45012,Female,20,7,Buyer,High,1,4.76,More,More
buysell_within2,45012,Female,20,8,Buyer,Medium,1.882539683,4.854,More,More
buysell_within2,45012,Female,20,9,Buyer,Low,1.114991182,2.326,More,More
buysell_within2,45012,Female,20,10,Seller,Medium,2.525925926,5.399,More,More
buysell_within2,45012,Female,20,11,Seller,Low,1.295590829,0.702,More,More
buysell_within2,45012,Female,20,12,Seller,High,1.498765432,6.62,More,More
buysell_within2,45012,Female,20,13,Seller,Medium,1.84303351,6.365,More,More
buysell_within2,45012,Female,20,14,Seller,High,2.367901235,3.76,More,More
buysell_within2,45012,Female,20,15,Seller,Low,2.988712522,1.581,More,More
buysell_within2,45012,Female,20,16,Seller,High,2.683950617,1.117,More,More
buysell_within2,45012,Female,20,17,Seller,Low,2.537213404,3.808,More,More
buysell_within2,45012,Female,20,18,Seller,Medium,2.463844797,2.947,More,More
buysell_within2,45195,Female,20,1,Seller,Low,3.416416416,8.85,No Difference,More
buysell_within2,45195,Female,20,2,Seller,Medium,1.974974975,3.136,No Difference,More
buysell_within2,45195,Female,20,3,Seller,High,4.52952953,2.915,No Difference,More
buysell_within2,45195,Female,20,4,Seller,Low,3,1.59,No Difference,More
buysell_within2,45195,Female,20,5,Seller,High,3.960960961,1.853,No Difference,More
buysell_within2,45195,Female,20,6,Seller,Medium,3.088088088,3.605,No Difference,More
buysell_within2,45195,Female,20,7,Seller,High,4.057057057,3.064,No Difference,More
buysell_within2,45195,Female,20,8,Seller,Medium,3.016016016,2.712,No Difference,More
buysell_within2,45195,Female,20,9,Seller,Low,2.207207207,2.854,No Difference,More
buysell_within2,45195,Female,20,10,Buyer,Medium,2.015015015,3.301,No Difference,More
buysell_within2,45195,Female,20,11,Buyer,Low,2.031031031,4.651,No Difference,More
buysell_within2,45195,Female,20,12,Buyer,High,3.048048048,2.503,No Difference,More
buysell_within2,45195,Female,20,13,Buyer,Medium,3.424424424,2.437,No Difference,More
buysell_within2,45195,Female,20,14,Buyer,High,3.952952953,1.929,No Difference,More
buysell_within2,45195,Female,20,15,Buyer,Low,4.017017017,2.522,No Difference,More
buysell_within2,45195,Female,20,16,Buyer,High,2.95995996,2.379,No Difference,More
buysell_within2,45195,Female,20,17,Buyer,Low,1.926926927,1.279,No Difference,More
buysell_within2,45195,Female,20,18,Buyer,Medium,1.966966967,1.701,No Difference,More
buysell_within2,45408,Female,20,1,Seller,Low,3.01797619,6.5924,No Difference,No Difference
buysell_within2,45408,Female,20,2,Seller,Medium,4.086339286,1.4343,No Difference,No Difference
buysell_within2,45408,Female,20,3,Seller,High,5,1.2357,No Difference,No Difference
buysell_within2,45408,Female,20,4,Seller,Low,1.944136905,2.2781,No Difference,No Difference
buysell_within2,45408,Female,20,5,Seller,High,3.677619048,3.1467,No Difference,No Difference
buysell_within2,45408,Female,20,6,Seller,Medium,2.771994048,8.8645,No Difference,No Difference
buysell_within2,45408,Female,20,7,Seller,High,4.218511905,3.0357,No Difference,No Difference
buysell_within2,45408,Female,20,8,Seller,Medium,1.996220238,2.764,No Difference,No Difference
buysell_within2,45408,Female,20,9,Seller,Low,1,2.1132,No Difference,No Difference
buysell_within2,45408,Female,20,10,Buyer,Medium,3.856607143,1.678,No Difference,No Difference
buysell_within2,45408,Female,20,11,Buyer,Low,5,0.7695,No Difference,No Difference
buysell_within2,45408,Female,20,12,Buyer,High,1,1.9944,No Difference,No Difference
buysell_within2,45408,Female,20,13,Buyer,Medium,4.040357143,1.78,No Difference,No Difference
buysell_within2,45408,Female,20,14,Buyer,High,1.836547619,2.5122,No Difference,No Difference
buysell_within2,45408,Female,20,15,Buyer,Low,5,2.4452,No Difference,No Difference
buysell_within2,45408,Female,20,16,Buyer,High,2.122767857,2.9269,No Difference,No Difference
buysell_within2,45408,Female,20,17,Buyer,Low,5,0.9279,No Difference,No Difference
buysell_within2,45408,Female,20,18,Buyer,Medium,2.828988095,2.5636,No Difference,No Difference
buysell_within2,45420,Female,22,1,Seller,Low,2.01037037,4.648,Less,No Difference
buysell_within2,45420,Female,22,2,Seller,Medium,1,3.437,Less,No Difference
buysell_within2,45420,Female,22,3,Seller,High,3.011851852,3.92,Less,No Difference
buysell_within2,45420,Female,22,4,Seller,Low,1,2.036,Less,No Difference
buysell_within2,45420,Female,22,5,Seller,High,3.942222222,3.414,Less,No Difference
buysell_within2,45420,Female,22,6,Seller,Medium,3.562962963,8.669,Less,No Difference
buysell_within2,45420,Female,22,7,Seller,High,4.540740741,2.515,Less,No Difference
buysell_within2,45420,Female,22,8,Seller,Medium,3.337777778,5.6,Less,No Difference
buysell_within2,45420,Female,22,9,Seller,Low,1,1.605,Less,No Difference
buysell_within2,45420,Female,22,10,Buyer,Medium,3.728888889,2.601,Less,No Difference
buysell_within2,45420,Female,22,11,Buyer,Low,4.037037037,5.644,Less,No Difference
buysell_within2,45420,Female,22,12,Buyer,High,1,1.454,Less,No Difference
buysell_within2,45420,Female,22,13,Buyer,Medium,1.945185185,21.833,Less,No Difference
buysell_within2,45420,Female,22,14,Buyer,High,3.112592593,6.634,Less,No Difference
buysell_within2,45420,Female,22,15,Buyer,Low,3.521481481,1.968,Less,No Difference
buysell_within2,45420,Female,22,16,Buyer,High,3.266666667,4.343,Less,No Difference
buysell_within2,45420,Female,22,17,Buyer,Low,2.028148148,2.398,Less,No Difference
buysell_within2,45420,Female,22,18,Buyer,Medium,2.016296296,15.888,Less,No Difference
buysell_within2,45534,Female,20,1,Buyer,Low,1,7.175,More,No Difference
buysell_within2,45534,Female,20,2,Buyer,Medium,1.198935185,3.0771,More,No Difference
buysell_within2,45534,Female,20,3,Buyer,High,2.014027778,1.9623,More,No Difference
buysell_within2,45534,Female,20,4,Buyer,Low,2.975856481,2.0797,More,No Difference
buysell_within2,45534,Female,20,5,Buyer,High,2.993773148,2.4794,More,No Difference
buysell_within2,45534,Female,20,6,Buyer,Medium,2.536574074,8.5464,More,No Difference
buysell_within2,45534,Female,20,7,Buyer,High,1.904259259,2.0461,More,No Difference
buysell_within2,45534,Female,20,8,Buyer,Medium,1.563009259,4.0792,More,No Difference
buysell_within2,45534,Female,20,9,Buyer,Low,1.664722222,2.5632,More,No Difference
buysell_within2,45534,Female,20,10,Seller,Medium,1.235023148,2.9952,More,No Difference
buysell_within2,45534,Female,20,11,Seller,Low,1.302083333,1.7298,More,No Difference
buysell_within2,45534,Female,20,12,Seller,High,2.930856481,1.7803,More,No Difference
buysell_within2,45534,Female,20,13,Seller,Medium,3.389976852,4.1126,More,No Difference
buysell_within2,45534,Female,20,14,Seller,High,2.014768519,3.7619,More,No Difference
buysell_within2,45534,Female,20,15,Seller,Low,2.554699074,3.8306,More,No Difference
buysell_within2,45534,Female,20,16,Seller,High,2.986643519,1.7634,More,No Difference
buysell_within2,45534,Female,20,17,Seller,Low,1.709976852,3.0628,More,No Difference
buysell_within2,45534,Female,20,18,Seller,Medium,2.376134259,3.4961,More,No Difference
buysell_within2,45622,Female,20,1,Seller,Low,2.033356481,9.2545,More,More
buysell_within2,45622,Female,20,2,Seller,Medium,2.95712963,5.5138,More,More
buysell_within2,45622,Female,20,3,Seller,High,4.021203704,3.0461,More,More
buysell_within2,45622,Female,20,4,Seller,Low,2.992337963,2.4298,More,More
buysell_within2,45622,Female,20,5,Seller,High,4.039583333,4.5809,More,More
buysell_within2,45622,Female,20,6,Seller,Medium,2.981527778,2.1967,More,More
buysell_within2,45622,Female,20,7,Seller,High,3.031805556,8.3448,More,More
buysell_within2,45622,Female,20,8,Seller,Medium,1.992314815,3.9464,More,More
buysell_within2,45622,Female,20,9,Seller,Low,1.00212963,0.9966,More,More
buysell_within2,45622,Female,20,10,Buyer,Medium,3.027824074,4.3624,More,More
buysell_within2,45622,Female,20,11,Buyer,Low,2.002384259,3.9462,More,More
buysell_within2,45622,Female,20,12,Buyer,High,1.044837963,3.3303,More,More
buysell_within2,45622,Female,20,13,Buyer,Medium,2.035277778,5.6119,More,More
buysell_within2,45622,Female,20,14,Buyer,High,3.00724537,3.7976,More,More
buysell_within2,45622,Female,20,15,Buyer,Low,2.006342593,2.2955,More,More
buysell_within2,45622,Female,20,16,Buyer,High,4.968981481,5.3638,More,More
buysell_within2,45622,Female,20,17,Buyer,Low,2.009675926,6.1144,More,More
buysell_within2,45622,Female,20,18,Buyer,Medium,1.973310185,2.414,More,More
buysell_within2,45682,Female,21,1,Seller,Low,1,5.0526,More,More
buysell_within2,45682,Female,21,2,Seller,Medium,4.046689815,1.7091,More,More
buysell_within2,45682,Female,21,3,Seller,High,4.997592593,1.56,More,More
buysell_within2,45682,Female,21,4,Seller,Low,1.980740741,2.1948,More,More
buysell_within2,45682,Female,21,5,Seller,High,2.002430556,10.2438,More,More
buysell_within2,45682,Female,21,6,Seller,Medium,1.998703704,2.3782,More,More
buysell_within2,45682,Female,21,7,Seller,High,2.974398148,3.1963,More,More
buysell_within2,45682,Female,21,8,Seller,Medium,1.974375,0.9952,More,More
buysell_within2,45682,Female,21,9,Seller,Low,1.470902778,17.4273,More,More
buysell_within2,45682,Female,21,10,Buyer,Medium,1.931111111,7.461,More,More
buysell_within2,45682,Female,21,11,Buyer,Low,2.02125,3.5277,More,More
buysell_within2,45682,Female,21,12,Buyer,High,3.022569444,7.761,More,More
buysell_within2,45682,Female,21,13,Buyer,Medium,1.01087963,1.5096,More,More
buysell_within2,45682,Female,21,14,Buyer,High,3.929305556,16.1308,More,More
buysell_within2,45682,Female,21,15,Buyer,Low,1.000069444,1.9953,More,More
buysell_within2,45682,Female,21,16,Buyer,High,2.995162037,9.4112,More,More
buysell_within2,45682,Female,21,17,Buyer,Low,1.498819444,3.3102,More,More
buysell_within2,45682,Female,21,18,Buyer,Medium,2.071712963,0.9966,More,More
buysell_within2,45894,Male,21,1,Seller,Low,2.041975309,9.5064,More,More
buysell_within2,45894,Male,21,2,Seller,Medium,3.039506173,2.7099,More,More
buysell_within2,45894,Male,21,3,Seller,High,3.049382716,2.3749,More,More
buysell_within2,45894,Male,21,4,Seller,Low,1,1.9049,More,More
buysell_within2,45894,Male,21,5,Seller,High,4.017283951,3.2203,More,More
buysell_within2,45894,Male,21,6,Seller,Medium,2.97037037,3.2875,More,More
buysell_within2,45894,Male,21,7,Seller,High,3.02962963,7.417,More,More
buysell_within2,45894,Male,21,8,Seller,Medium,2.002469136,5.7423,More,More
buysell_within2,45894,Male,21,9,Seller,Low,3.943209877,4.24,More,More
buysell_within2,45894,Male,21,10,Buyer,Medium,1.854320988,6.2676,More,More
buysell_within2,45894,Male,21,11,Buyer,Low,1.034567901,1.8441,More,More
buysell_within2,45894,Male,21,12,Buyer,High,2.940740741,1.1278,More,More
buysell_within2,45894,Male,21,13,Buyer,Medium,2.451851852,4.8694,More,More
buysell_within2,45894,Male,21,14,Buyer,High,2.975308642,6.2628,More,More
buysell_within2,45894,Male,21,15,Buyer,Low,1.8,6.5186,More,More
buysell_within2,45894,Male,21,16,Buyer,High,3.503703704,2.0497,More,More
buysell_within2,45894,Male,21,17,Buyer,Low,1.340740741,2.9485,More,More
buysell_within2,45894,Male,21,18,Buyer,Medium,2.002469136,2.8738,More,More
buysell_within2,46206,Female,20,1,Seller,Low,1,6.4532,More,More
buysell_within2,46206,Female,20,2,Seller,Medium,1.024691358,2.0727,More,More
buysell_within2,46206,Female,20,3,Seller,High,3.108642201,6.4826,More,More
buysell_within2,46206,Female,20,4,Seller,Low,1.987654321,14.8192,More,More
buysell_within2,46206,Female,20,5,Seller,High,4.990123607,1.11,More,More
buysell_within2,46206,Female,20,6,Seller,Medium,4.881481783,2.1816,More,More
buysell_within2,46206,Female,20,7,Seller,High,5,3.2004,More,More
buysell_within2,46206,Female,20,8,Seller,Medium,2.990123607,2.9291,More,More
buysell_within2,46206,Female,20,9,Seller,Low,1.271604938,2.557,More,More
buysell_within2,46206,Female,20,10,Buyer,Medium,1.454321214,12.5325,More,More
buysell_within2,46206,Female,20,11,Buyer,Low,1.479012572,5.0011,More,More
buysell_within2,46206,Female,20,12,Buyer,High,1,9.1002,More,More
buysell_within2,46206,Female,20,13,Buyer,Medium,2.012345679,3.3011,More,More
buysell_within2,46206,Female,20,14,Buyer,High,2.570370521,3.3681,More,More
buysell_within2,46206,Female,20,15,Buyer,Low,4.076543361,1.2681,More,More
buysell_within2,46206,Female,20,16,Buyer,High,2.027160645,3.9007,More,More
buysell_within2,46206,Female,20,17,Buyer,Low,2.985185411,1.8125,More,More
buysell_within2,46206,Female,20,18,Buyer,Medium,2.950617284,2.7981,More,More
buysell_within2,46222,Female,21,1,Buyer,Low,1,3.9136,No Difference,No Difference
buysell_within2,46222,Female,21,2,Buyer,Medium,1,8.2223,No Difference,No Difference
buysell_within2,46222,Female,21,3,Buyer,High,1,1.1149,No Difference,No Difference
buysell_within2,46222,Female,21,4,Buyer,Low,1.066666805,2.0455,No Difference,No Difference
buysell_within2,46222,Female,21,5,Buyer,High,1.048484802,2.5003,No Difference,No Difference
buysell_within2,46222,Female,21,6,Buyer,Medium,1,2.5441,No Difference,No Difference
buysell_within2,46222,Female,21,7,Buyer,High,1,1.9477,No Difference,No Difference
buysell_within2,46222,Female,21,8,Buyer,Medium,1,2.7092,No Difference,No Difference
buysell_within2,46222,Female,21,9,Buyer,Low,2.024242517,2.6268,No Difference,No Difference
buysell_within2,46222,Female,21,10,Seller,Medium,2.884848392,3.938,No Difference,No Difference
buysell_within2,46222,Female,21,11,Seller,Low,4.909090909,1.0148,No Difference,No Difference
buysell_within2,46222,Female,21,12,Seller,High,5,2.0757,No Difference,No Difference
buysell_within2,46222,Female,21,13,Seller,Medium,5,1.4634,No Difference,No Difference
buysell_within2,46222,Female,21,14,Seller,High,5,2.4867,No Difference,No Difference
buysell_within2,46222,Female,21,15,Seller,Low,5,1.6367,No Difference,No Difference
buysell_within2,46222,Female,21,16,Seller,High,4.96969697,1.8378,No Difference,No Difference
buysell_within2,46222,Female,21,17,Seller,Low,5,2.2594,No Difference,No Difference
buysell_within2,46222,Female,21,18,Seller,Medium,5,1.2727,No Difference,No Difference
buysell_within2,46339,Female,23,1,Seller,Low,3.005497685,5.4681,No Difference,No Difference
buysell_within2,46339,Female,23,2,Seller,Medium,3.497415123,3.4351,No Difference,No Difference
buysell_within2,46339,Female,23,3,Seller,High,5,1.1191,No Difference,No Difference
buysell_within2,46339,Female,23,4,Seller,Low,2.633931327,2.4951,No Difference,No Difference
buysell_within2,46339,Female,23,5,Seller,High,4.736419753,1.3861,No Difference,No Difference
buysell_within2,46339,Female,23,6,Seller,Medium,2.972665895,1.8056,No Difference,No Difference
buysell_within2,46339,Female,23,7,Seller,High,5,1.0797,No Difference,No Difference
buysell_within2,46339,Female,23,8,Seller,Medium,2.734818673,2.0542,No Difference,No Difference
buysell_within2,46339,Female,23,9,Seller,Low,1.286496914,0.9508,No Difference,No Difference
buysell_within2,46339,Female,23,10,Buyer,Medium,1.603549383,6.81,No Difference,No Difference
buysell_within2,46339,Female,23,11,Buyer,Low,2.280073302,2.9667,No Difference,No Difference
buysell_within2,46339,Female,23,12,Buyer,High,1.240354938,3.717,No Difference,No Difference
buysell_within2,46339,Female,23,13,Buyer,Medium,3.062866512,2.9683,No Difference,No Difference
buysell_within2,46339,Female,23,14,Buyer,High,1.389660494,6.581,No Difference,No Difference
buysell_within2,46339,Female,23,15,Buyer,Low,3.415528549,2.8606,No Difference,No Difference
buysell_within2,46339,Female,23,16,Buyer,High,1.093942901,8.9136,No Difference,No Difference
buysell_within2,46339,Female,23,17,Buyer,Low,2.826311728,4.3863,No Difference,No Difference
buysell_within2,46339,Female,23,18,Buyer,Medium,1.625520833,4.5843,No Difference,No Difference
buysell_within2,46966,Female,21,1,Seller,Low,3.99367284,8.0122,No Difference,No Difference
buysell_within2,46966,Female,21,2,Seller,Medium,3.082694004,1.2861,No Difference,No Difference
buysell_within2,46966,Female,21,3,Seller,High,5,1.5282,No Difference,No Difference
buysell_within2,46966,Female,21,4,Seller,Low,1.067570547,1.1032,No Difference,No Difference
buysell_within2,46966,Female,21,5,Seller,High,4.807429453,1.7151,No Difference,No Difference
buysell_within2,46966,Female,21,6,Seller,Medium,3.963073192,2.1984,No Difference,No Difference
buysell_within2,46966,Female,21,7,Seller,High,5,1.5227,No Difference,No Difference
buysell_within2,46966,Female,21,8,Seller,Medium,3.005026455,1.2845,No Difference,No Difference
buysell_within2,46966,Female,21,9,Seller,Low,2.951300705,3.6005,No Difference,No Difference
buysell_within2,46966,Female,21,10,Buyer,Medium,1.876609347,7.2202,No Difference,No Difference
buysell_within2,46966,Female,21,11,Buyer,Low,1,1.3243,No Difference,No Difference
buysell_within2,46966,Female,21,12,Buyer,High,1.688999118,1.243,No Difference,No Difference
buysell_within2,46966,Female,21,13,Buyer,Medium,1.800132275,3.5197,No Difference,No Difference
buysell_within2,46966,Female,21,14,Buyer,High,2.73723545,2.2346,No Difference,No Difference
buysell_within2,46966,Female,21,15,Buyer,Low,1,0.8044,No Difference,No Difference
buysell_within2,46966,Female,21,16,Buyer,High,1.077380952,0.9142,No Difference,No Difference
buysell_within2,46966,Female,21,17,Buyer,Low,2.097508818,1.4787,No Difference,No Difference
buysell_within2,46966,Female,21,18,Buyer,Medium,1.206944444,1.5461,No Difference,No Difference
buysell_within2,47171,Male,22,1,Seller,Low,1.50617284,12.373,More,More
buysell_within2,47171,Male,22,2,Seller,Medium,4.518518519,3.062,More,More
buysell_within2,47171,Male,22,3,Seller,High,4.981481481,1.477,More,More
buysell_within2,47171,Male,22,4,Seller,Low,2.018518519,5.794,More,More
buysell_within2,47171,Male,22,5,Seller,High,5,1.844,More,More
buysell_within2,47171,Male,22,6,Seller,Medium,3.487654321,3.595,More,More
buysell_within2,47171,Male,22,7,Seller,High,5,1.264,More,More
buysell_within2,47171,Male,22,8,Seller,Medium,3.450617284,11.894,More,More
buysell_within2,47171,Male,22,9,Seller,Low,1.444444444,1.766,More,More
buysell_within2,47171,Male,22,10,Buyer,Medium,3.574074074,7.093,More,More
buysell_within2,47171,Male,22,11,Buyer,Low,1.580246914,2.579,More,More
buysell_within2,47171,Male,22,12,Buyer,High,4.611111111,3.361,More,More
buysell_within2,47171,Male,22,13,Buyer,Medium,3.024691358,2.329,More,More
buysell_within2,47171,Male,22,14,Buyer,High,4.24691358,1.211,More,More
buysell_within2,47171,Male,22,15,Buyer,Low,1.604938272,2.212,More,More
buysell_within2,47171,Male,22,16,Buyer,High,4.580246914,8.845,More,More
buysell_within2,47171,Male,22,17,Buyer,Low,1.450617284,13.127,More,More
buysell_within2,47171,Male,22,18,Buyer,Medium,2.432098765,1.945,More,More
buysell_within2,47178,Female,20,1,Seller,Low,3.343070652,7.2423,Less,More
buysell_within2,47178,Female,20,2,Seller,Medium,2.156612319,2.8896,Less,More
buysell_within2,47178,Female,20,3,Seller,High,4.754008152,10.2365,Less,More
buysell_within2,47178,Female,20,4,Seller,Low,2.971127717,1.6726,Less,More
buysell_within2,47178,Female,20,5,Seller,High,2.288700181,1.8358,Less,More
buysell_within2,47178,Female,20,6,Seller,Medium,4.172916667,1.7366,Less,More
buysell_within2,47178,Female,20,7,Seller,High,3.89535779,2.0678,Less,More
buysell_within2,47178,Female,20,8,Seller,Medium,4.01548913,1.1422,Less,More
buysell_within2,47178,Female,20,9,Seller,Low,3.135371377,1.586,Less,More
buysell_within2,47178,Female,20,10,Buyer,Medium,2.118410326,3.6454,Less,More
buysell_within2,47178,Female,20,11,Buyer,Low,2.556023551,2.7274,Less,More
buysell_within2,47178,Female,20,12,Buyer,High,3.245606884,4.5549,Less,More
buysell_within2,47178,Female,20,13,Buyer,Medium,3.252558877,1.7426,Less,More
buysell_within2,47178,Female,20,14,Buyer,High,2.115851449,2.1903,Less,More
buysell_within2,47178,Female,20,15,Buyer,Low,3.232359601,1.047,Less,More
buysell_within2,47178,Female,20,16,Buyer,High,2.264923007,1.3211,Less,More
buysell_within2,47178,Female,20,17,Buyer,Low,2.556068841,2.1452,Less,More
buysell_within2,47178,Female,20,18,Buyer,Medium,1.576290761,2.4199,Less,More
buysell_within2,47183,Female,20,1,Buyer,Low,1,10.118,More,Less
buysell_within2,47183,Female,20,2,Buyer,Medium,1.360183558,4.5145,More,Less
buysell_within2,47183,Female,20,3,Buyer,High,2.01031033,4.6976,More,Less
buysell_within2,47183,Female,20,4,Buyer,Low,2.998777127,2.3301,More,Less
buysell_within2,47183,Female,20,5,Buyer,High,3.362867839,4.3318,More,Less
buysell_within2,47183,Female,20,6,Buyer,Medium,2.421698857,6.9497,More,Less
buysell_within2,47183,Female,20,7,Buyer,High,1,41.0639,More,Less
buysell_within2,47183,Female,20,13,Seller,Medium,2.023118128,1.9485,More,Less
buysell_within2,47183,Female,20,14,Seller,High,4.001105324,3.8673,More,Less
buysell_within2,47183,Female,20,15,Seller,Low,3.958899378,3.4662,More,Less
buysell_within2,47183,Female,20,16,Seller,High,1.989093244,3.0931,More,Less
buysell_within2,47183,Female,20,17,Seller,Low,1,6.4145,More,Less
buysell_within2,47183,Female,20,18,Seller,Medium,3.023100767,3.1496,More,Less
buysell_within2,47344,Female,20,1,Seller,Low,4.764375,2.9713,Less,More
buysell_within2,47344,Female,20,2,Seller,Medium,4.977777778,1.6774,Less,More
buysell_within2,47344,Female,20,3,Seller,High,4.976287263,0.8395,Less,More
buysell_within2,47344,Female,20,4,Seller,Low,1.538900181,2.0119,Less,More
buysell_within2,47344,Female,20,5,Seller,High,4.928551265,3.5779,Less,More
buysell_within2,47344,Female,20,6,Seller,Medium,3.963979223,7.4798,Less,More
buysell_within2,47344,Female,20,7,Seller,High,4.867379926,1.6605,Less,More
buysell_within2,47344,Female,20,8,Seller,Medium,4.981167898,3.0789,Less,More
buysell_within2,47344,Female,20,9,Seller,Low,1.575456691,11.1439,Less,More
buysell_within2,47344,Female,20,10,Buyer,Medium,3.869740353,2.9145,Less,More
buysell_within2,47344,Female,20,11,Buyer,Low,2.029838875,1.5623,Less,More
buysell_within2,47344,Female,20,12,Buyer,High,4.98034688,4.6789,Less,More
buysell_within2,47344,Female,20,13,Buyer,Medium,3.962335796,24.1118,Less,More
buysell_within2,47344,Female,20,14,Buyer,High,4.950559319,2.594,Less,More
buysell_within2,47344,Female,20,15,Buyer,Low,3.819529967,8.361,Less,More
buysell_within2,47344,Female,20,16,Buyer,High,4.008774631,1.1113,Less,More
buysell_within2,47344,Female,20,17,Buyer,Low,1.066733374,0.8462,Less,More
buysell_within2,47344,Female,20,18,Buyer,Medium,3.958307677,17.6273,Less,More
buysell_within2,47491,Male,20,1,Buyer,Low,4.987982253,6.3606,Less,Less
buysell_within2,47491,Male,20,2,Buyer,Medium,3.697511574,3.7544,Less,Less
buysell_within2,47491,Male,20,3,Buyer,High,2.794232777,0.9091,Less,Less
buysell_within2,47491,Male,20,4,Buyer,Low,3.263874391,121.099,Less,Less
buysell_within2,47491,Male,20,5,Buyer,High,3.867801844,7.7081,Less,Less
buysell_within2,47491,Male,20,6,Buyer,Medium,2.606058629,3.5809,Less,Less
buysell_within2,47491,Male,20,7,Buyer,High,5,1.9381,Less,Less
buysell_within2,47491,Male,20,8,Buyer,Medium,3.986234342,7.9658,Less,Less
buysell_within2,47491,Male,20,9,Buyer,Low,3.525160926,1.5676,Less,Less
buysell_within2,47491,Male,20,10,Seller,Medium,3.090096555,0.846,Less,Less
buysell_within2,47491,Male,20,11,Seller,Low,4.277596555,1.1854,Less,Less
buysell_within2,47491,Male,20,12,Seller,High,3.741540536,1.0645,Less,Less
buysell_within2,47491,Male,20,13,Seller,Medium,3.82000261,5.6894,Less,Less
buysell_within2,47491,Male,20,14,Seller,High,2.437086813,1.8051,Less,Less
buysell_within2,47491,Male,20,15,Seller,Low,4.562847947,2.5052,Less,Less
buysell_within2,47491,Male,20,16,Seller,High,2.820546277,6.1755,Less,Less
buysell_within2,47491,Male,20,17,Seller,Low,3.399073591,11.8195,Less,Less
buysell_within2,47491,Male,20,18,Seller,Medium,3.78111952,1.4144,Less,Less
buysell_within2,47580,Female,20,1,Seller,Low,4.018257694,4.389,More,More
buysell_within2,47580,Female,20,2,Seller,Medium,5,3.7431,More,More
buysell_within2,47580,Female,20,3,Seller,High,5,3.8084,More,More
buysell_within2,47580,Female,20,4,Seller,Low,2.031820553,3.4415,More,More
buysell_within2,47580,Female,20,5,Seller,High,5,8.8228,More,More
buysell_within2,47580,Female,20,6,Seller,Medium,3.008346375,6.4935,More,More
buysell_within2,47580,Female,20,7,Seller,High,3.989045383,7.879,More,More
buysell_within2,47580,Female,20,8,Seller,Medium,3.104329682,2.1889,More,More
buysell_within2,47580,Female,20,9,Seller,Low,2.010954617,3.3742,More,More
buysell_within2,47580,Female,20,10,Buyer,Medium,3.029212311,5.4711,More,More
buysell_within2,47580,Female,20,11,Buyer,Low,2.958268127,20.6868,More,More
buysell_within2,47580,Female,20,12,Buyer,High,1.931664058,3.1195,More,More
buysell_within2,47580,Female,20,13,Buyer,Medium,1.952529995,9.7115,More,More
buysell_within2,47580,Female,20,14,Buyer,High,2.991653625,39.6682,More,More
buysell_within2,47580,Female,20,15,Buyer,Low,2.027647366,3.5856,More,More
buysell_within2,47580,Female,20,16,Buyer,High,1.973395931,5.0707,More,More
buysell_within2,47580,Female,20,17,Buyer,Low,2.949921753,17.3135,More,More
buysell_within2,47580,Female,20,18,Buyer,Medium,2.991653625,23.5017,More,More
buysell_within2,47727,Female,20,1,Seller,Low,2.540740741,11.8268,No Difference,More
buysell_within2,47727,Female,20,2,Seller,Medium,4.022222222,3.102,No Difference,More
buysell_within2,47727,Female,20,3,Seller,High,2.99506203,4.0021,No Difference,More
buysell_within2,47727,Female,20,4,Seller,Low,3.044444444,3.908,No Difference,More
buysell_within2,47727,Female,20,5,Seller,High,3.049382867,4.9191,No Difference,More
buysell_within2,47727,Female,20,6,Seller,Medium,4.980247215,2.5792,No Difference,More
buysell_within2,47727,Female,20,7,Seller,High,4.076543511,2.2705,No Difference,More
buysell_within2,47727,Female,20,8,Seller,Medium,2.960493978,2.7179,No Difference,More
buysell_within2,47727,Female,20,9,Seller,Low,2.501234719,4.0699,No Difference,More
buysell_within2,47727,Female,20,10,Buyer,Medium,3.088888889,2.5519,No Difference,More
buysell_within2,47727,Female,20,11,Buyer,Low,2.120987956,4.7344,No Difference,More
buysell_within2,47727,Female,20,12,Buyer,High,3.9827162,5.4318,No Difference,More
buysell_within2,47727,Female,20,13,Buyer,Medium,2.950617585,3.5598,No Difference,More
buysell_within2,47727,Female,20,14,Buyer,High,3.004938422,6.6615,No Difference,More
buysell_within2,47727,Female,20,15,Buyer,Low,1.123456941,5.3607,No Difference,More
buysell_within2,47727,Female,20,16,Buyer,High,1.987654396,3.9812,No Difference,More
buysell_within2,47727,Female,20,17,Buyer,Low,4.027160645,1.7672,No Difference,More
buysell_within2,47727,Female,20,18,Buyer,Medium,3.049382867,2.1418,No Difference,More
buysell_within2,47756,Female,20,1,Buyer,Low,1,4.4158,More,More
buysell_within2,47756,Female,20,2,Buyer,Medium,1.398346561,2.0438,More,More
buysell_within2,47756,Female,20,3,Buyer,High,1.731944444,3.9021,More,More
buysell_within2,47756,Female,20,4,Buyer,Low,2.010383598,2.5513,More,More
buysell_within2,47756,Female,20,5,Buyer,High,2.048104056,2.6944,More,More
buysell_within2,47756,Female,20,6,Buyer,Medium,1.817967372,3.3605,More,More
buysell_within2,47756,Female,20,7,Buyer,High,2.473037919,3.0355,More,More
buysell_within2,47756,Female,20,8,Buyer,Medium,3.019422399,1.6353,More,More
buysell_within2,47756,Female,20,9,Buyer,Low,2.548015873,3.0689,More,More
buysell_within2,47756,Female,20,10,Seller,Medium,3.010648148,5.1509,More,More
buysell_within2,47756,Female,20,11,Seller,Low,5,3.2345,More,More
buysell_within2,47756,Female,20,12,Seller,High,3.974184303,1.8521,More,More
buysell_within2,47756,Female,20,13,Seller,Medium,5,2.9603,More,More
buysell_within2,47756,Female,20,14,Seller,High,3.501212522,2.5438,More,More
buysell_within2,47756,Female,20,15,Seller,Low,5,1.611,More,More
buysell_within2,47756,Female,20,16,Seller,High,3.993099647,1.8442,More,More
buysell_within2,47756,Female,20,17,Seller,Low,5,1.5195,More,More
buysell_within2,47756,Female,20,18,Seller,Medium,3.996296296,2.9354,More,More
buysell_within2,48369,Female,20,1,Seller,Low,2.003040225,3.0595,Less,Less
buysell_within2,48369,Female,20,2,Seller,Medium,4.995283754,2.1084,Less,Less
buysell_within2,48369,Female,20,3,Seller,High,3.972813377,3.4213,Less,Less
buysell_within2,48369,Female,20,4,Seller,Low,2.043907858,1.3043,Less,Less
buysell_within2,48369,Female,20,5,Seller,High,5,1.9526,Less,Less
buysell_within2,48369,Female,20,6,Seller,Medium,2.563084659,3.0996,Less,Less
buysell_within2,48369,Female,20,7,Seller,High,4.489963361,1.6023,Less,Less
buysell_within2,48369,Female,20,8,Seller,Medium,3.433875117,5.6253,Less,Less
buysell_within2,48369,Female,20,9,Seller,Low,1.397957593,5.3118,Less,Less
buysell_within2,48369,Female,20,10,Buyer,Medium,3.058875117,17.4104,Less,Less
buysell_within2,48369,Female,20,11,Buyer,Low,3.977666043,7.6143,Less,Less
buysell_within2,48369,Female,20,12,Buyer,High,1,4.1491,Less,Less
buysell_within2,48369,Female,20,13,Buyer,Medium,2.555035859,3.1547,Less,Less
buysell_within2,48369,Female,20,14,Buyer,High,1,3.1693,Less,Less
buysell_within2,48369,Female,20,15,Buyer,Low,5,2.3167,Less,Less
buysell_within2,48369,Female,20,16,Buyer,High,3.946406299,2.252,Less,Less
buysell_within2,48369,Female,20,17,Buyer,Low,1,0.9009,Less,Less
buysell_within2,48369,Female,20,18,Buyer,Medium,4.484214219,5.304,Less,Less
buysell_within2,48590,Female,20,1,Seller,Low,2.07654321,5.7775,More,More
buysell_within2,48590,Female,20,2,Seller,Medium,2.995061728,4.1938,More,More
buysell_within2,48590,Female,20,3,Seller,High,3.987654321,4.313,More,More
buysell_within2,48590,Female,20,4,Seller,Low,2.44691358,2.6483,More,More
buysell_within2,48590,Female,20,5,Seller,High,4.511111111,1.5584,More,More
buysell_within2,48590,Female,20,6,Seller,Medium,2.437037037,2.9767,More,More
buysell_within2,48590,Female,20,7,Seller,High,4.841975309,0.7019,More,More
buysell_within2,48590,Female,20,8,Seller,Medium,1.661728395,1.3895,More,More
buysell_within2,48590,Female,20,9,Seller,Low,1.207407407,1.2615,More,More
buysell_within2,48590,Female,20,10,Buyer,Medium,1.8790123460000001,6.473,More,More
buysell_within2,48590,Female,20,11,Buyer,Low,2.027160494,3.0619,More,More
buysell_within2,48590,Female,20,12,Buyer,High,1.019753086,3.1307,More,More
buysell_within2,48590,Female,20,14,Buyer,High,1,3.7982,More,More
buysell_within2,48590,Female,20,15,Buyer,Low,1.735802469,1.118,More,More
buysell_within2,48590,Female,20,16,Buyer,High,1,5.8602,More,More
buysell_within2,48590,Female,20,17,Buyer,Low,1.918518519,1.1981,More,More
buysell_within2,48590,Female,20,18,Buyer,Medium,1.760493827,2.4652,More,More
buysell_within2,48764,Female,20,1,Buyer,Low,1,12.3728,More,More
buysell_within2,48764,Female,20,2,Buyer,Medium,3.006112558,16.724,More,More
buysell_within2,48764,Female,20,3,Buyer,High,3.002605613,4.9486,More,More
buysell_within2,48764,Female,20,4,Buyer,Low,2.015852865,4.151,More,More
buysell_within2,48764,Female,20,5,Buyer,High,1,6.8036,More,More
buysell_within2,48764,Female,20,6,Buyer,Medium,1,1.6381,More,More
buysell_within2,48764,Female,20,7,Buyer,High,1,2.7535,More,More
buysell_within2,48764,Female,20,8,Buyer,Medium,4.01390625,3.4103,More,More
buysell_within2,48764,Female,20,9,Buyer,Low,5,1.8924,More,More
buysell_within2,48764,Female,20,10,Seller,Medium,2.963238932,4.89,More,More
buysell_within2,48764,Female,20,11,Seller,Low,2.992973452,4.534,More,More
buysell_within2,48764,Female,20,12,Seller,High,5,1.6436,More,More
buysell_within2,48764,Female,20,13,Seller,Medium,4.070638021,1.8721,More,More
buysell_within2,48764,Female,20,14,Seller,High,4.992214265,1.8045,More,More
buysell_within2,48764,Female,20,15,Seller,Low,1.492367079,4.103,More,More
buysell_within2,48764,Female,20,16,Seller,High,4.011865234,1.7532,More,More
buysell_within2,48764,Female,20,17,Seller,Low,1.987074653,2.8865,More,More
buysell_within2,48764,Female,20,18,Seller,Medium,2.506355975,4.9515,More,More
buysell_within2,49303,Female,20,1,Seller,Low,1.729601171,8.518,No Difference,More
buysell_within2,49303,Female,20,2,Seller,Medium,3.011708745,2.0759,No Difference,More
buysell_within2,49303,Female,20,3,Seller,High,4.539699963,1.4652,No Difference,More
buysell_within2,49303,Female,20,4,Seller,Low,1.407610684,2.5845,No Difference,More
buysell_within2,49303,Female,20,5,Seller,High,4.229418222,4.5396,No Difference,More
buysell_within2,49303,Female,20,6,Seller,Medium,3.029271862,11.8613,No Difference,More
buysell_within2,49303,Female,20,7,Seller,High,3.450786681,3.5208,No Difference,More
buysell_within2,49303,Female,20,8,Seller,Medium,3.076106842,3.2392,No Difference,More
buysell_within2,49303,Female,20,9,Seller,Low,1.243688255,2.1062,No Difference,More
buysell_within2,49303,Female,20,10,Buyer,Medium,1.758873033,7.7846,No Difference,More
buysell_within2,49303,Female,20,11,Buyer,Low,1.290523235,2.8462,No Difference,More
buysell_within2,49303,Female,20,12,Buyer,High,3.345407977,2.2024,No Difference,More
buysell_within2,49303,Female,20,13,Buyer,Medium,2.449688986,2.8188,No Difference,More
buysell_within2,49303,Female,20,14,Buyer,High,3.380534211,2.7936,No Difference,More
buysell_within2,49303,Female,20,15,Buyer,Low,2.045737285,3.1977,No Difference,More
buysell_within2,49303,Female,20,16,Buyer,High,3.09366996,2.9811,No Difference,More
buysell_within2,49303,Female,20,17,Buyer,Low,1.477863154,2.2771,No Difference,More
buysell_within2,49303,Female,20,18,Buyer,Medium,2.05744603,4.3591,No Difference,More
buysell_within2,49339,Female,21,1,Seller,Low,1.453333333,8.663,More,More
buysell_within2,49339,Female,21,2,Seller,Medium,1,4.186,More,More
buysell_within2,49339,Female,21,3,Seller,High,1.026666667,5.152,More,More
buysell_within2,49339,Female,21,4,Seller,Low,2.223703704,5.251,More,More
buysell_within2,49339,Female,21,5,Seller,High,2.176296296,2.152,More,More
buysell_within2,49339,Female,21,6,Seller,Medium,2.84,4.784,More,More
buysell_within2,49339,Female,21,7,Seller,High,2.004444444,4.835,More,More
buysell_within2,49339,Female,21,8,Seller,Medium,2.22962963,16.585,More,More
buysell_within2,49339,Female,21,9,Seller,Low,2.342222222,3.285,More,More
buysell_within2,49339,Female,21,10,Buyer,Medium,1.376296296,4.749,More,More
buysell_within2,49339,Female,21,11,Buyer,Low,1.358518519,7.568,More,More
buysell_within2,49339,Female,21,12,Buyer,High,1.056296296,2.568,More,More
buysell_within2,49339,Female,21,13,Buyer,Medium,1.002962963,2.101,More,More
buysell_within2,49339,Female,21,14,Buyer,High,1,4.55,More,More
buysell_within2,49339,Female,21,15,Buyer,Low,1.008888889,11.086,More,More
buysell_within2,49339,Female,21,16,Buyer,High,1.074074074,2.586,More,More
buysell_within2,49339,Female,21,17,Buyer,Low,1.097777778,2.918,More,More
buysell_within2,49339,Female,21,18,Buyer,Medium,1.10962963,1.854,More,More
buysell_within2,49468,Female,20,1,Seller,Low,3.500495515,4.116,No Difference,More
buysell_within2,49468,Female,20,2,Seller,Medium,4.516942998,8.1241,No Difference,More
buysell_within2,49468,Female,20,3,Seller,High,4.98786169,2.5733,No Difference,More
buysell_within2,49468,Female,20,4,Seller,Low,2.412415726,4.2093,No Difference,More
buysell_within2,49468,Female,20,5,Seller,High,4.273155382,5.9928,No Difference,More
buysell_within2,49468,Female,20,6,Seller,Medium,3.45330693,5.5109,No Difference,More
buysell_within2,49468,Female,20,7,Seller,High,1,1.7423,No Difference,More
buysell_within2,49468,Female,20,8,Seller,Medium,1,1.3937,No Difference,More
buysell_within2,49468,Female,20,9,Seller,Low,4.339653139,3.0748,No Difference,More
buysell_within2,49468,Female,20,10,Buyer,Medium,2.99927445,5.8576,No Difference,More
buysell_within2,49468,Female,20,11,Buyer,Low,4.011040943,2.6591,No Difference,More
buysell_within2,49468,Female,20,12,Buyer,High,1,1.5747,No Difference,More
buysell_within2,49468,Female,20,13,Buyer,Medium,2.026599031,4.6961,No Difference,More
buysell_within2,49468,Female,20,14,Buyer,High,1.009634693,1.0754,No Difference,More
buysell_within2,49468,Female,20,15,Buyer,Low,4.985671296,3.0941,No Difference,More
buysell_within2,49468,Female,20,16,Buyer,High,1.032297273,1.5926,No Difference,More
buysell_within2,49468,Female,20,17,Buyer,Low,4.983573495,2.0596,No Difference,More
buysell_within2,49468,Female,20,18,Buyer,Medium,1.002571795,2.2458,No Difference,More
buysell_within2,49510,Female,20,1,Seller,Low,1.864197531,3.9668,No Difference,No Difference
buysell_within2,49510,Female,20,2,Seller,Medium,1.607407407,2.3495,No Difference,No Difference
buysell_within2,49510,Female,20,3,Seller,High,1,1.0327,No Difference,No Difference
buysell_within2,49510,Female,20,4,Seller,Low,4.150617284,3.2495,No Difference,No Difference
buysell_within2,49510,Female,20,5,Seller,High,1,1.5993,No Difference,No Difference
buysell_within2,49510,Female,20,6,Seller,Medium,2.985185185,1.3827,No Difference,No Difference
buysell_within2,49510,Female,20,7,Seller,High,1,0.7493,No Difference,No Difference
buysell_within2,49510,Female,20,8,Seller,Medium,1,2.6995,No Difference,No Difference
buysell_within2,49510,Female,20,9,Seller,Low,5,0.6831,No Difference,No Difference
buysell_within2,49510,Female,20,10,Buyer,Medium,1,2.7827,No Difference,No Difference
buysell_within2,49510,Female,20,11,Buyer,Low,1,1.3664,No Difference,No Difference
buysell_within2,49510,Female,20,12,Buyer,High,1,3.3832,No Difference,No Difference
buysell_within2,49510,Female,20,13,Buyer,Medium,1,2.7208,No Difference,No Difference
buysell_within2,49510,Female,20,14,Buyer,High,1,0.8995,No Difference,No Difference
buysell_within2,49510,Female,20,15,Buyer,Low,1,0.9662,No Difference,No Difference
buysell_within2,49510,Female,20,16,Buyer,High,1,1.6179,No Difference,No Difference
buysell_within2,49510,Female,20,17,Buyer,Low,1,1.1497,No Difference,No Difference
buysell_within2,49510,Female,20,18,Buyer,Medium,1,1.0312,No Difference,No Difference
buysell_within2,49563,Female,19,1,Buyer,Low,1,13.6371,Less,No Difference
buysell_within2,49563,Female,19,2,Buyer,Medium,2.019930556,5.6115,Less,No Difference
buysell_within2,49563,Female,19,3,Buyer,High,2.001736111,5.0285,Less,No Difference
buysell_within2,49563,Female,19,4,Buyer,Low,2.981365741,2.0284,Less,No Difference
buysell_within2,49563,Female,19,5,Buyer,High,3.0125,5.512,Less,No Difference
buysell_within2,49563,Female,19,6,Buyer,Medium,1.967175926,8.7651,Less,No Difference
buysell_within2,49563,Female,19,7,Buyer,High,1.98525463,3.2292,Less,No Difference
buysell_within2,49563,Female,19,8,Buyer,Medium,1.007847222,7.9458,Less,No Difference
buysell_within2,49563,Female,19,9,Buyer,Low,2.990439815,3.5951,Less,No Difference
buysell_within2,49563,Female,19,10,Seller,Medium,3.026898148,6.745,Less,No Difference
buysell_within2,49563,Female,19,11,Seller,Low,3.992453704,3.4796,Less,No Difference
buysell_within2,49563,Female,19,12,Seller,High,5,3.9121,Less,No Difference
buysell_within2,49563,Female,19,13,Seller,Medium,2.991180556,2.2115,Less,No Difference
buysell_within2,49563,Female,19,14,Seller,High,5,2.5126,Less,No Difference
buysell_within2,49563,Female,19,15,Seller,Low,5,4.4123,Less,No Difference
buysell_within2,49563,Female,19,16,Seller,High,3.011180556,2.5276,Less,No Difference
buysell_within2,49563,Female,19,17,Seller,Low,4.096828704,3.2971,Less,No Difference
buysell_within2,49563,Female,19,18,Seller,Medium,2.993703704,1.3439,Less,No Difference
buysell_within2,49696,Female,19,1,Buyer,Low,1,5.1778,No Difference,No Difference
buysell_within2,49696,Female,19,2,Buyer,Medium,2.967407407,1.2667,No Difference,No Difference
buysell_within2,49696,Female,19,3,Buyer,High,4.022222222,5.1931,No Difference,No Difference
buysell_within2,49696,Female,19,4,Buyer,Low,1.945185185,1.8492,No Difference,No Difference
buysell_within2,49696,Female,19,5,Buyer,High,4.76,1.5805,No Difference,No Difference
buysell_within2,49696,Female,19,6,Buyer,Medium,2.674074074,1.247,No Difference,No Difference
buysell_within2,49696,Female,19,7,Buyer,High,3.696296296,2.9305,No Difference,No Difference
buysell_within2,49696,Female,19,8,Buyer,Medium,2.908148148,1.8094,No Difference,No Difference
buysell_within2,49696,Female,19,9,Buyer,Low,1.604444444,3.973,No Difference,No Difference
buysell_within2,49696,Female,19,10,Seller,Medium,4.161481481,4.648,No Difference,No Difference
buysell_within2,49696,Female,19,11,Seller,Low,2.804444444,3.9452,No Difference,No Difference
buysell_within2,49696,Female,19,12,Seller,High,4.848888889,1.0458,No Difference,No Difference
buysell_within2,49696,Female,19,13,Seller,Medium,2.561481481,0.9971,No Difference,No Difference
buysell_within2,49696,Female,19,14,Seller,High,4.543703704,2.2785,No Difference,No Difference
buysell_within2,49696,Female,19,15,Seller,Low,2.644444444,1.7149,No Difference,No Difference
buysell_within2,49696,Female,19,16,Seller,High,4.164444444,4.1404,No Difference,No Difference
buysell_within2,49696,Female,19,17,Seller,Low,2.197037037,1.2803,No Difference,No Difference
buysell_within2,49696,Female,19,18,Seller,Medium,2.988148148,2.8669,No Difference,No Difference
buysell_within2,49806,Female,19,1,Buyer,Low,1.986390399,4.9216,More,More
buysell_within2,49806,Female,19,2,Buyer,Medium,1.470561594,3.97,More,More
buysell_within2,49806,Female,19,3,Buyer,High,1.658990036,2.1356,More,More
buysell_within2,49806,Female,19,4,Buyer,Low,1.41875,3.922,More,More
buysell_within2,49806,Female,19,5,Buyer,High,1.747214674,2.9526,More,More
buysell_within2,49806,Female,19,6,Buyer,Medium,1.928351449,2.7315,More,More
buysell_within2,49806,Female,19,7,Buyer,High,1.809963768,1.5461,More,More
buysell_within2,49806,Female,19,8,Buyer,Medium,2.076177536,2.7117,More,More
buysell_within2,49806,Female,19,9,Buyer,Low,1.522463768,2.1951,More,More
buysell_within2,49806,Female,19,10,Seller,Medium,2.424071558,4.0112,More,More
buysell_within2,49806,Female,19,11,Seller,Low,2.226630435,2.1119,More,More
buysell_within2,49806,Female,19,12,Seller,High,2.559646739,1.813,More,More
buysell_within2,49806,Female,19,13,Seller,Medium,2.136299819,1.6704,More,More
buysell_within2,49806,Female,19,14,Seller,High,2.363813406,1.9784,More,More
buysell_within2,49806,Female,19,15,Seller,Low,2.570561594,1.4952,More,More
buysell_within2,49806,Female,19,16,Seller,High,2.488451087,1.1644,More,More
buysell_within2,49806,Female,19,17,Seller,Low,2.605457428,1.6637,More,More
buysell_within2,49806,Female,19,18,Seller,Medium,2.452083333,2.7051,More,More
buysell_within2,49815,Female,22,1,Buyer,Low,1,16.6299,No Difference,More
buysell_within2,49815,Female,22,2,Buyer,Medium,1,4.9677,No Difference,More
buysell_within2,49815,Female,22,3,Buyer,High,1.014814777,2.1505,No Difference,More
buysell_within2,49815,Female,22,4,Buyer,Low,1.987654321,4.468,No Difference,More
buysell_within2,49815,Female,22,5,Buyer,High,1,6.7726,No Difference,More
buysell_within2,49815,Female,22,6,Buyer,Medium,1,2.471,No Difference,More
buysell_within2,49815,Female,22,7,Buyer,High,1,2.8416,No Difference,More
buysell_within2,49815,Female,22,8,Buyer,Medium,1.024691358,1.3961,No Difference,More
buysell_within2,49815,Female,22,9,Buyer,Low,3,2.8376,No Difference,More
buysell_within2,49815,Female,22,10,Seller,Medium,1.967901159,30.1247,No Difference,More
buysell_within2,49815,Female,22,11,Seller,Low,1.996010459,4.2049,No Difference,More
buysell_within2,49815,Female,22,12,Seller,High,1.996010459,2.9067,No Difference,More
buysell_within2,49815,Female,22,13,Seller,Medium,2.013780129,2.3268,No Difference,More
buysell_within2,49815,Female,22,14,Seller,High,1.986395259,4.4095,No Difference,More
buysell_within2,49815,Female,22,15,Seller,Low,1.98055325,2.6485,No Difference,More
buysell_within2,49815,Female,22,16,Seller,High,1.974711241,4.0407,No Difference,More
buysell_within2,49815,Female,22,17,Seller,Low,1.992237491,3.1926,No Difference,More
buysell_within2,49815,Female,22,18,Seller,Medium,2.01560575,17.0297,No Difference,More
buysell_within2,49877,Female,27,1,Buyer,Low,3.985507246,5.533,More,More
buysell_within2,49877,Female,27,2,Buyer,Medium,3.104347826,3.909,More,More
buysell_within2,49877,Female,27,3,Buyer,High,1.997101449,2.504,More,More
buysell_within2,49877,Female,27,4,Buyer,Low,2.91884058,2.173,More,More
buysell_within2,49877,Female,27,5,Buyer,High,3.023188406,0.834,More,More
buysell_within2,49877,Female,27,6,Buyer,Medium,3.017391304,1.469,More,More
buysell_within2,49877,Female,27,7,Buyer,High,3.075362319,1.1,More,More
buysell_within2,49877,Female,27,8,Buyer,Medium,2.762318841,0.933,More,More
buysell_within2,49877,Female,27,9,Buyer,Low,2.808695652,0.722,More,More
buysell_within2,49877,Female,27,10,Seller,Medium,2.460869565,1.117,More,More
buysell_within2,49877,Female,27,11,Seller,Low,2.831884058,0.635,More,More
buysell_within2,49877,Female,27,12,Seller,High,2.68115942,2.519,More,More
buysell_within2,49877,Female,27,13,Seller,Medium,2.895652174,0.935,More,More
buysell_within2,49877,Female,27,14,Seller,High,2.826086957,0.968,More,More
buysell_within2,49877,Female,27,15,Seller,Low,2.211594203,0.823,More,More
buysell_within2,49877,Female,27,16,Seller,High,2.739130435,0.958,More,More
buysell_within2,49877,Female,27,17,Seller,Low,2.884057971,0.951,More,More
buysell_within2,49877,Female,27,18,Seller,Medium,3.655072464,1.95,More,More
buysell_within2,49905,Female,21,1,Buyer,Low,1,10.5903,More,More
buysell_within2,49905,Female,21,2,Buyer,Medium,2.007685185,5.1695,More,More
buysell_within2,49905,Female,21,3,Buyer,High,1.002824074,3.5865,More,More
buysell_within2,49905,Female,21,4,Buyer,Low,1.083541667,2.5147,More,More
buysell_within2,49905,Female,21,5,Buyer,High,1.016064815,4.5392,More,More
buysell_within2,49905,Female,21,6,Buyer,Medium,1.026203704,0.8215,More,More
buysell_within2,49905,Female,21,7,Buyer,High,1.01599537,2.8956,More,More
buysell_within2,49905,Female,21,8,Buyer,Medium,1.178935185,0.6018,More,More
buysell_within2,49905,Female,21,9,Buyer,Low,1.003703704,0.7196,More,More
buysell_within2,49905,Female,21,10,Seller,Medium,4.883657407,4.8509,More,More
buysell_within2,49905,Female,21,11,Seller,Low,5,3.0966,More,More
buysell_within2,49905,Female,21,12,Seller,High,5,3.5297,More,More
buysell_within2,49905,Female,21,13,Seller,Medium,4.969699074,1.7698,More,More
buysell_within2,49905,Female,21,14,Seller,High,4.930023148,2.6812,More,More
buysell_within2,49905,Female,21,15,Seller,Low,5,3.1009,More,More
buysell_within2,49905,Female,21,16,Seller,High,5,0.5481,More,More
buysell_within2,49905,Female,21,17,Seller,Low,4.965162037,2.2966,More,More
buysell_within2,49905,Female,21,18,Seller,Medium,4.994884259,3.0368,More,More
buysell_within2,49949,Female,21,1,Seller,Low,2.96,51.1764,Less,More
buysell_within2,49949,Female,21,2,Seller,Medium,2.01,7.5327,Less,More
buysell_within2,49949,Female,21,3,Seller,High,4.9,5.9886,Less,More
buysell_within2,49949,Female,21,4,Seller,Low,4.006666667,3.4069,Less,More
buysell_within2,49949,Female,21,5,Seller,High,3.1,3.2056,Less,More
buysell_within2,49949,Female,21,6,Seller,Medium,2.293333333,3.4772,Less,More
buysell_within2,49949,Female,21,7,Seller,High,3.69,3.6704,Less,More
buysell_within2,49949,Female,21,8,Seller,Medium,2.486666667,2.3428,Less,More
buysell_within2,49949,Female,21,9,Seller,Low,1.61,13.3286,Less,More
buysell_within2,49949,Female,21,10,Buyer,Medium,2.606666667,5.3554,Less,More
buysell_within2,49949,Female,21,11,Buyer,Low,1.76,8.5874,Less,More
buysell_within2,49949,Female,21,12,Buyer,High,3.986666667,1306.8808,Less,More
buysell_within2,49949,Female,21,13,Buyer,Medium,3.683333333,2.8887,Less,More
buysell_within2,49949,Female,21,14,Buyer,High,2.756666667,5.6739,Less,More
buysell_within2,49949,Female,21,15,Buyer,Low,2.01,18.0549,Less,More
buysell_within2,49949,Female,21,16,Buyer,High,1.886666667,3.4349,Less,More
buysell_within2,49949,Female,21,17,Buyer,Low,1.583333333,46.4093,Less,More
buysell_within2,49949,Female,21,18,Buyer,Medium,2.4,7.5052,Less,More
buysell_within2,49958,Female,19,1,Seller,Low,1.90837963,8.2745,More,Less
buysell_within2,49958,Female,19,2,Seller,Medium,3.016597222,3.1956,More,Less
buysell_within2,49958,Female,19,3,Seller,High,4.011458333,3.2006,More,Less
buysell_within2,49958,Female,19,4,Seller,Low,3.511435185,0.8684,More,Less
buysell_within2,49958,Female,19,5,Seller,High,3.980787037,0.8797,More,Less
buysell_within2,49958,Female,19,6,Seller,Medium,1.008680556,2.3623,More,Less
buysell_within2,49958,Female,19,7,Seller,High,3.955092593,5.368,More,Less
buysell_within2,49958,Female,19,8,Seller,Medium,4.089652778,1.231,More,Less
buysell_within2,49958,Female,19,9,Seller,Low,2.007384259,2.3726,More,Less
buysell_within2,49958,Female,19,10,Buyer,Medium,2.631365741,5.3515,More,Less
buysell_within2,49958,Female,19,11,Buyer,Low,3.973148148,0.6353,More,Less
buysell_within2,49958,Female,19,12,Buyer,High,3.470347222,2.3785,More,Less
buysell_within2,49958,Female,19,13,Buyer,Medium,3.043888889,1.1445,More,Less
buysell_within2,49958,Female,19,14,Buyer,High,2.16375,0.8814,More,Less
buysell_within2,49958,Female,19,15,Buyer,Low,3.987523148,0.5794,More,Less
buysell_within2,49958,Female,19,16,Buyer,High,2.010185185,2.1613,More,Less
buysell_within2,49958,Female,19,17,Buyer,Low,4.994675926,0.7458,More,Less
buysell_within2,49958,Female,19,18,Buyer,Medium,3.058240741,0.7793,More,Less
buysell_within2,50013,Female,21,1,Seller,Low,2.977581522,3.8402,No Difference,More
buysell_within2,50013,Female,21,2,Seller,Medium,3.998980978,3.0032,No Difference,More
buysell_within2,50013,Female,21,3,Seller,High,1.982586051,3.5579,No Difference,More
buysell_within2,50013,Female,21,4,Seller,Low,1.586865942,3.5782,No Difference,More
buysell_within2,50013,Female,21,5,Seller,High,2.464039855,3.9528,No Difference,More
buysell_within2,50013,Female,21,6,Seller,Medium,2.350294384,2.2037,No Difference,More
buysell_within2,50013,Female,21,7,Seller,High,1.956770833,2.3964,No Difference,More
buysell_within2,50013,Female,21,8,Seller,Medium,1.667527174,3.4804,No Difference,More
buysell_within2,50013,Female,21,9,Seller,Low,1.381974638,2.3473,No Difference,More
buysell_within2,50013,Female,21,10,Buyer,Medium,1.996467391,3.2548,No Difference,More
buysell_within2,50013,Female,21,11,Buyer,Low,1.696761775,3.4793,No Difference,More
buysell_within2,50013,Female,21,12,Buyer,High,1.723686594,19.3525,No Difference,More
buysell_within2,50013,Female,21,13,Buyer,Medium,1.584216486,6.1355,No Difference,More
buysell_within2,50013,Female,21,14,Buyer,High,1.717346014,10.2837,No Difference,More
buysell_within2,50013,Female,21,15,Buyer,Low,1.732269022,2.4908,No Difference,More
buysell_within2,50013,Female,21,16,Buyer,High,1.808899457,2.6933,No Difference,More
buysell_within2,50013,Female,21,17,Buyer,Low,1.710439312,2.5632,No Difference,More
buysell_within2,50013,Female,21,18,Buyer,Medium,1.667527174,1.7249,No Difference,More
buysell_within2,50110,Female,21,1,Seller,Low,4.023919753,5.0069,No Difference,More
buysell_within2,50110,Female,21,2,Seller,Medium,5,1.3127,No Difference,More
buysell_within2,50110,Female,21,3,Seller,High,5,39.389,No Difference,More
buysell_within2,50110,Female,21,4,Seller,Low,1.046704131,1.6537,No Difference,More
buysell_within2,50110,Female,21,5,Seller,High,4.002126367,7.0441,No Difference,More
buysell_within2,50110,Female,21,6,Seller,Medium,3.977470636,1.4352,No Difference,More
buysell_within2,50110,Female,21,7,Seller,High,4.992178007,2.0106,No Difference,More
buysell_within2,50110,Female,21,8,Seller,Medium,5,0.7638,No Difference,More
buysell_within2,50110,Female,21,9,Seller,Low,1.029035034,0.6852,No Difference,More
buysell_within2,50110,Female,21,10,Buyer,Medium,1.07095484,1.2844,No Difference,More
buysell_within2,50110,Female,21,11,Buyer,Low,1,3.8946,No Difference,More
buysell_within2,50110,Female,21,12,Buyer,High,1.009568651,0.8705,No Difference,More
buysell_within2,50110,Female,21,13,Buyer,Medium,1.076979546,1.6355,No Difference,More
buysell_within2,50110,Female,21,14,Buyer,High,1.051513771,0.6381,No Difference,More
buysell_within2,50110,Female,21,15,Buyer,Low,1,1.604,No Difference,More
buysell_within2,50110,Female,21,16,Buyer,High,1,2.3734,No Difference,More
buysell_within2,50110,Female,21,17,Buyer,Low,1.021111786,1.065,No Difference,More
buysell_within2,50110,Female,21,18,Buyer,Medium,1,0.9647,No Difference,More
buysell_within2,50129,Male,21,1,Seller,Low,5,3.8605,More,More
buysell_within2,50129,Male,21,2,Seller,Medium,5,1.4981,More,More
buysell_within2,50129,Male,21,3,Seller,High,5,1.9997,More,More
buysell_within2,50129,Male,21,4,Seller,Low,1,1.7025,More,More
buysell_within2,50129,Male,21,5,Seller,High,4.837037037,4.9562,More,More
buysell_within2,50129,Male,21,6,Seller,Medium,3.992592593,102.5286,More,More
buysell_within2,50129,Male,21,7,Seller,High,4.72345679,79.1242,More,More
buysell_within2,50129,Male,21,8,Seller,Medium,1.834567901,3.9858,More,More
buysell_within2,50129,Male,21,9,Seller,Low,1.014814815,3.2914,More,More
buysell_within2,50129,Male,21,10,Buyer,Medium,2.496296296,6.2554,More,More
buysell_within2,50129,Male,21,11,Buyer,Low,1,1.2616,More,More
buysell_within2,50129,Male,21,12,Buyer,High,3.439506173,1.9198,More,More
buysell_within2,50129,Male,21,13,Buyer,Medium,2.007407407,1.9841,More,More
buysell_within2,50129,Male,21,14,Buyer,High,4.04691358,4.1182,More,More
buysell_within2,50129,Male,21,15,Buyer,Low,1,0.8049,More,More
buysell_within2,50129,Male,21,16,Buyer,High,3.133333333,7.7623,More,More
buysell_within2,50129,Male,21,17,Buyer,Low,1.27654321,1.5848,More,More
buysell_within2,50129,Male,21,18,Buyer,Medium,2.402469136,3.3394,More,More
buysell_within2,50230,Male,20,1,Seller,Low,1.969657389,7.4376,More,Less
buysell_within2,50230,Male,20,2,Seller,Medium,3.059514218,2.6979,More,Less
buysell_within2,50230,Male,20,3,Seller,High,3.886865816,7.6402,More,Less
buysell_within2,50230,Male,20,4,Seller,Low,3.26989717,9.4942,More,Less
buysell_within2,50230,Male,20,5,Seller,High,3.038909331,2.8863,More,Less
buysell_within2,50230,Male,20,6,Seller,Medium,2.040076846,1.6656,More,Less
buysell_within2,50230,Male,20,7,Seller,High,3.041936965,3.1633,More,Less
buysell_within2,50230,Male,20,8,Seller,Medium,2.287910679,1.6437,More,Less
buysell_within2,50230,Male,20,9,Seller,Low,1.720261347,1.1258,More,Less
buysell_within2,50230,Male,20,10,Buyer,Medium,2.490354411,6.3353,More,Less
buysell_within2,50230,Male,20,11,Buyer,Low,1.968810163,1.8066,More,Less
buysell_within2,50230,Male,20,12,Buyer,High,5,0.9772,More,Less
buysell_within2,50230,Male,20,13,Buyer,Medium,2.815063477,1.6872,More,Less
buysell_within2,50230,Male,20,14,Buyer,High,4.075131952,1.3551,More,Less
buysell_within2,50230,Male,20,15,Buyer,Low,1.82696882,6.0574,More,Less
buysell_within2,50230,Male,20,16,Buyer,High,3.949881417,4.2533,More,Less
buysell_within2,50230,Male,20,17,Buyer,Low,1.090393648,3.5182,More,Less
buysell_within2,50230,Male,20,18,Buyer,Medium,2.797157506,4.3783,More,Less
buysell_within2,50262,Female,19,1,Seller,Low,1,12.3688,Less,More
buysell_within2,50262,Female,19,2,Seller,Medium,1.980253623,3.8685,Less,More
buysell_within2,50262,Female,19,3,Seller,High,1,3.872,Less,More
buysell_within2,50262,Female,19,4,Seller,Low,2.967685688,2.0862,Less,More
buysell_within2,50262,Female,19,5,Seller,High,3.451585145,6.9203,Less,More
buysell_within2,50262,Female,19,6,Seller,Medium,4.024343297,3.1347,Less,More
buysell_within2,50262,Female,19,7,Seller,High,1.505457428,3.4196,Less,More
buysell_within2,50262,Female,19,8,Seller,Medium,3.577105978,2.345,Less,More
buysell_within2,50262,Female,19,9,Seller,Low,3.555887681,3.7905,Less,More
buysell_within2,50262,Female,19,10,Buyer,Medium,3.033899457,6.1019,Less,More
buysell_within2,50262,Female,19,11,Buyer,Low,1,1.4031,Less,More
buysell_within2,50262,Female,19,12,Buyer,High,1.530389493,4.9026,Less,More
buysell_within2,50262,Female,19,13,Buyer,Medium,3.550249094,6.1274,Less,More
buysell_within2,50262,Female,19,14,Buyer,High,2.353487319,2.638,Less,More
buysell_within2,50262,Female,19,15,Buyer,Low,5,2.102,Less,More
buysell_within2,50262,Female,19,16,Buyer,High,1.741983696,3.8124,Less,More
buysell_within2,50262,Female,19,17,Buyer,Low,3.397418478,2.3368,Less,More
buysell_within2,50262,Female,19,18,Buyer,Medium,4.014243659,2.6944,Less,More
buysell_within2,50265,Female,19,1,Seller,Low,2.046342593,5.7221,Less,No Difference
buysell_within2,50265,Female,19,2,Seller,Medium,3.006689815,4.9121,Less,No Difference
buysell_within2,50265,Female,19,3,Seller,High,4.018055556,2.8824,Less,No Difference
buysell_within2,50265,Female,19,4,Seller,Low,5,3.5854,Less,No Difference
buysell_within2,50265,Female,19,5,Seller,High,2.985231481,5.112,Less,No Difference
buysell_within2,50265,Female,19,6,Seller,Medium,1,2.7758,Less,No Difference
buysell_within2,50265,Female,19,7,Seller,High,1.980416667,3.3139,Less,No Difference
buysell_within2,50265,Female,19,8,Seller,Medium,4.003912037,5.4161,Less,No Difference
buysell_within2,50265,Female,19,9,Seller,Low,2.981435185,3.2659,Less,No Difference
buysell_within2,50265,Female,19,10,Buyer,Medium,1.999699074,5.353,Less,No Difference
buysell_within2,50265,Female,19,11,Buyer,Low,4.038217593,2.4306,Less,No Difference
buysell_within2,50265,Female,19,12,Buyer,High,2.019675926,3.4336,Less,No Difference
buysell_within2,50265,Female,19,13,Buyer,Medium,4.573310185,4.4326,Less,No Difference
buysell_within2,50265,Female,19,14,Buyer,High,2.953888889,5.8792,Less,No Difference
buysell_within2,50265,Female,19,15,Buyer,Low,2.043402778,4.3781,Less,No Difference
buysell_within2,50265,Female,19,16,Buyer,High,5,6.2623,Less,No Difference
buysell_within2,50265,Female,19,17,Buyer,Low,5,2.0008,Less,No Difference
buysell_within2,50265,Female,19,18,Buyer,Medium,4.072523148,2.9207,Less,No Difference
buysell_within2,50319,Female,19,1,Buyer,Low,2.093070984,6.5656,Less,More
buysell_within2,50319,Female,19,2,Buyer,Medium,2.963776482,2.0709,Less,More
buysell_within2,50319,Female,19,3,Buyer,High,3.496933407,5.2878,Less,More
buysell_within2,50319,Female,19,4,Buyer,Low,3.004467858,8.5951,Less,More
buysell_within2,50319,Female,19,5,Buyer,High,3.00024075,40.0336,Less,More
buysell_within2,50319,Female,19,6,Buyer,Medium,2.803449419,3.5529,Less,More
buysell_within2,50319,Female,19,7,Buyer,High,2.144970788,1.8535,Less,More
buysell_within2,50319,Female,19,8,Buyer,Medium,4.569455889,1.4236,Less,More
buysell_within2,50319,Female,19,9,Buyer,Low,5,1.5917,Less,More
buysell_within2,50319,Female,19,10,Seller,Medium,3.501987457,2.8684,Less,More
buysell_within2,50319,Female,19,11,Seller,Low,5,1.8104,Less,More
buysell_within2,50319,Female,19,12,Seller,High,2.274634043,5.1697,Less,More
buysell_within2,50319,Female,19,13,Seller,Medium,3.308295356,2.7599,Less,More
buysell_within2,50319,Female,19,14,Seller,High,1.589180417,1.7546,Less,More
buysell_within2,50319,Female,19,15,Seller,Low,4.073209127,2.6206,Less,More
buysell_within2,50319,Female,19,16,Seller,High,1.916217804,4.2718,Less,More
buysell_within2,50319,Female,19,17,Seller,Low,2.062326219,2.5424,Less,More
buysell_within2,50319,Female,19,18,Seller,Medium,3.426587423,1.9044,Less,More
buysell_within2,50338,Female,22,1,Seller,Low,2.021944444,4.734,More,More
buysell_within2,50338,Female,22,2,Seller,Medium,2.968611111,3.0447,More,More
buysell_within2,50338,Female,22,3,Seller,High,3.500046296,4.998,More,More
buysell_within2,50338,Female,22,4,Seller,Low,2.704768519,2.1795,More,More
buysell_within2,50338,Female,22,5,Seller,High,3.384351852,3.3107,More,More
buysell_within2,50338,Female,22,6,Seller,Medium,2.632106481,3.4438,More,More
buysell_within2,50338,Female,22,7,Seller,High,3.898125,6.2942,More,More
buysell_within2,50338,Female,22,8,Seller,Medium,3.807731481,6.7956,More,More
buysell_within2,50338,Female,22,9,Seller,Low,3.353240741,2.5075,More,More
buysell_within2,50338,Female,22,10,Buyer,Medium,4.032314815,4.4099,More,More
buysell_within2,50338,Female,22,11,Buyer,Low,2.433796296,2.9795,More,More
buysell_within2,50338,Female,22,12,Buyer,High,2.354606481,3.1114,More,More
buysell_within2,50338,Female,22,13,Buyer,Medium,3.676967593,4.7255,More,More
buysell_within2,50338,Female,22,14,Buyer,High,2.431875,2.6944,More,More
buysell_within2,50338,Female,22,15,Buyer,Low,3.514699074,2.9102,More,More
buysell_within2,50338,Female,22,16,Buyer,High,3.740949074,1.6439,More,More
buysell_within2,50338,Female,22,17,Buyer,Low,3.209282407,2.3959,More,More
buysell_within2,50338,Female,22,18,Buyer,Medium,2.577013889,6.7113,More,More
buysell_within2,50359,Female,22,1,Seller,Low,2.030830613,5.845,Less,More
buysell_within2,50359,Female,22,2,Seller,Medium,2.947769314,3.459,Less,More
buysell_within2,50359,Female,22,3,Seller,High,1.996010156,4.702,Less,More
buysell_within2,50359,Female,22,4,Seller,Low,1.961189699,2.282,Less,More
buysell_within2,50359,Female,22,5,Seller,High,3.992383025,1.654,Less,More
buysell_within2,50359,Female,22,6,Seller,Medium,2.988393181,1.936,Less,More
buysell_within2,50359,Female,22,7,Seller,High,3.980776206,1.761,Less,More
buysell_within2,50359,Female,22,8,Seller,Medium,3.969169387,3.074,Less,More
buysell_within2,50359,Female,22,9,Seller,Low,2.988393181,2.007,Less,More
buysell_within2,50359,Female,22,10,Buyer,Medium,1.026840769,9.176,Less,More
buysell_within2,50359,Female,22,11,Buyer,Low,1,1.841,Less,More
buysell_within2,50359,Female,22,12,Buyer,High,1.01523395,4.049,Less,More
buysell_within2,50359,Female,22,13,Buyer,Medium,1,1.989,Less,More
buysell_within2,50359,Female,22,14,Buyer,High,4.996372869,1.29,Less,More
buysell_within2,50359,Female,22,15,Buyer,Low,4.98476605,2.739,Less,More
buysell_within2,50359,Female,22,16,Buyer,High,4.021400073,1.856,Less,More
buysell_within2,50359,Female,22,17,Buyer,Low,3.992383025,1.904,Less,More
buysell_within2,50359,Female,22,18,Buyer,Medium,4.038810301,1.771,Less,More
buysell_within2,50531,Female,20,1,Seller,Low,1,17.9714,More,No Difference
buysell_within2,50531,Female,20,2,Seller,Medium,2.088287037,3.0934,More,No Difference
buysell_within2,50531,Female,20,3,Seller,High,5,2.4002,More,No Difference
buysell_within2,50531,Female,20,4,Seller,Low,2.958101852,4.2277,More,No Difference
buysell_within2,50531,Female,20,5,Seller,High,1.0375,2.0944,More,No Difference
buysell_within2,50531,Female,20,6,Seller,Medium,4.032013889,4.5765,More,No Difference
buysell_within2,50531,Female,20,7,Seller,High,1,1.6245,More,No Difference
buysell_within2,50531,Female,20,8,Seller,Medium,2.980833333,3.4014,More,No Difference
buysell_within2,50531,Female,20,9,Seller,Low,3.972175926,2.7692,More,No Difference
buysell_within2,50531,Female,20,10,Buyer,Medium,2.911342593,4.7114,More,No Difference
buysell_within2,50531,Female,20,11,Buyer,Low,4.909027778,2.4457,More,No Difference
buysell_within2,50531,Female,20,12,Buyer,High,1,1.955,More,No Difference
buysell_within2,50531,Female,20,13,Buyer,Medium,5,4.0422,More,No Difference
buysell_within2,50531,Female,20,14,Buyer,High,1.49587963,6.0225,More,No Difference
buysell_within2,50531,Female,20,15,Buyer,Low,5,3.2764,More,No Difference
buysell_within2,50531,Female,20,16,Buyer,High,1.355856481,4.453,More,No Difference
buysell_within2,50531,Female,20,17,Buyer,Low,4.070138889,1.9372,More,No Difference
buysell_within2,50531,Female,20,18,Buyer,Medium,3.997916667,2.6566,More,No Difference
buysell_within2,50564,Female,24,1,Seller,Low,4.015020616,7.4983,More,More
buysell_within2,50564,Female,24,2,Seller,Medium,2.023226635,3.3883,More,More
buysell_within2,50564,Female,24,3,Seller,High,2.491749132,4.453,More,More
buysell_within2,50564,Female,24,4,Seller,Low,2.996533203,6.1094,More,More
buysell_within2,50564,Female,24,5,Seller,High,4.985015914,1.9394,More,More
buysell_within2,50564,Female,24,6,Seller,Medium,4.035653212,3.6365,More,More
buysell_within2,50564,Female,24,7,Seller,High,4.616346933,3.2072,More,More
buysell_within2,50564,Female,24,8,Seller,Medium,3.877640697,2.0061,More,More
buysell_within2,50564,Female,24,9,Seller,Low,3.520684317,0.9947,More,More
buysell_within2,50564,Female,24,10,Buyer,Medium,2.902763672,9.9358,More,More
buysell_within2,50564,Female,24,11,Buyer,Low,3.003992694,1.6063,More,More
buysell_within2,50564,Female,24,12,Buyer,High,3.031041305,18.3135,More,More
buysell_within2,50564,Female,24,13,Buyer,Medium,3.010174696,5.6691,More,More
buysell_within2,50564,Female,24,14,Buyer,High,2.950240885,1.8746,More,More
buysell_within2,50564,Female,24,15,Buyer,Low,3.595794271,1.2576,More,More
buysell_within2,50564,Female,24,16,Buyer,High,3.011420718,1.7754,More,More
buysell_within2,50564,Female,24,17,Buyer,Low,1.592078631,1.2408,More,More
buysell_within2,50564,Female,24,18,Buyer,Medium,3.062124204,9.2676,More,More
buysell_within2,50645,Female,19,1,Buyer,Low,1.049382867,8.3056,No Difference,More
buysell_within2,50645,Female,19,2,Buyer,Medium,1,7.0564,No Difference,More
buysell_within2,50645,Female,19,3,Buyer,High,1.02962963,2.8589,No Difference,More
buysell_within2,50645,Female,19,4,Buyer,Low,1.039506248,6.5997,No Difference,More
buysell_within2,50645,Female,19,5,Buyer,High,1.009876619,4.0623,No Difference,More
buysell_within2,50645,Female,19,6,Buyer,Medium,1.024691433,1.9344,No Difference,More
buysell_within2,50645,Female,19,7,Buyer,High,1.039506248,4.549,No Difference,More
buysell_within2,50645,Female,19,8,Buyer,Medium,1.024691433,2.562,No Difference,More
buysell_within2,50645,Female,19,9,Buyer,Low,1.02962963,1.414,No Difference,More
buysell_within2,50645,Female,19,10,Seller,Medium,2.002469211,2.3015,No Difference,More
buysell_within2,50645,Female,19,11,Seller,Low,1.019753237,2.4518,No Difference,More
buysell_within2,50645,Female,19,12,Seller,High,2.990123607,4.1979,No Difference,More
buysell_within2,50645,Female,19,13,Seller,Medium,1.948148148,2.7903,No Difference,More
buysell_within2,50645,Female,19,14,Seller,High,3.972839808,3.5504,No Difference,More
buysell_within2,50645,Female,19,15,Seller,Low,1.009876619,2.5337,No Difference,More
buysell_within2,50645,Female,19,16,Seller,High,1.02962963,2.5026,No Difference,More
buysell_within2,50645,Female,19,17,Seller,Low,1.049382867,2.4232,No Difference,More
buysell_within2,50645,Female,19,18,Seller,Medium,1.95308657,4.2403,No Difference,More
buysell_within2,50826,Male,19,1,Seller,Low,5,6.1755,No Difference,No Difference
buysell_within2,50826,Male,19,2,Seller,Medium,1,2.464,No Difference,No Difference
buysell_within2,50826,Male,19,3,Seller,High,1,2.075,No Difference,No Difference
buysell_within2,50826,Male,19,4,Seller,Low,5,2.1342,No Difference,No Difference
buysell_within2,50826,Male,19,5,Seller,High,1,1.8099,No Difference,No Difference
buysell_within2,50826,Male,19,6,Seller,Medium,1,1.5891,No Difference,No Difference
buysell_within2,50826,Male,19,7,Seller,High,1,3.3456,No Difference,No Difference
buysell_within2,50826,Male,19,8,Seller,Medium,1,2.9814,No Difference,No Difference
buysell_within2,50826,Male,19,9,Seller,Low,5,1.8592,No Difference,No Difference
