experiment_name,id,attention_check1,attention_check2,block,trial,order,condition,effort_level,component,rating,rt
buysell_within2,27389,1,2,main,1,BuyerSeller,Buyer,Low,NA,1.009289322,1.7058
buysell_within2,27389,1,2,main,2,BuyerSeller,Buyer,Medium,NA,1,1.7275
buysell_within2,27389,1,2,main,3,BuyerSeller,Buyer,High,NA,1,2.1619
buysell_within2,27389,1,2,main,4,BuyerSeller,Buyer,Low,NA,1,27.3306
buysell_within2,27389,1,2,main,5,BuyerSeller,Buyer,High,NA,1,3.56
buysell_within2,27389,1,2,main,6,BuyerSeller,Buyer,Medium,NA,1,1.5459
buysell_within2,27389,1,2,main,7,BuyerSeller,Buyer,High,NA,1,1.9122
buysell_within2,27389,1,2,main,8,BuyerSeller,Buyer,Medium,NA,1,1.3967
buysell_within2,27389,1,2,main,9,BuyerSeller,Buyer,Low,NA,1.52531265,2.3611
buysell_within2,27389,1,2,main,10,BuyerSeller,Seller,Medium,NA,1,3.6295
buysell_within2,27389,1,2,main,11,BuyerSeller,Seller,Low,NA,1,1.7938
buysell_within2,27389,1,2,main,12,BuyerSeller,Seller,High,NA,1,1.5124
buysell_within2,27389,1,2,main,13,BuyerSeller,Seller,Medium,NA,1.119979557,1.9662
buysell_within2,27389,1,2,main,14,BuyerSeller,Seller,High,NA,1.081259019,1.3279
buysell_within2,27389,1,2,main,15,BuyerSeller,Seller,Low,NA,1,1.762
buysell_within2,27389,1,2,main,16,BuyerSeller,Seller,High,NA,1.161405724,4.8621
buysell_within2,27389,1,2,main,17,BuyerSeller,Seller,Low,NA,1,1.9473
buysell_within2,27389,1,2,main,18,BuyerSeller,Seller,Medium,NA,1.076779702,2.6784
buysell_within2,27389,1,2,taskload,19,BuyerSeller,NA,Low,Temporal,11,5.3925
buysell_within2,27389,1,2,taskload,19,BuyerSeller,NA,Low,Effort,13,6.3622
buysell_within2,27389,1,2,taskload,19,BuyerSeller,NA,Low,Physical,16,2.1627
buysell_within2,27389,1,2,taskload,19,BuyerSeller,NA,Low,Efficient,1,3.5777
buysell_within2,27389,1,2,taskload,19,BuyerSeller,NA,Low,Depend,1,3.9462
buysell_within2,27389,1,2,taskload,19,BuyerSeller,NA,Low,Mental,18,1.7111
buysell_within2,27389,1,2,taskload,19,BuyerSeller,NA,Low,Frustration,21,2.3952
buysell_within2,27389,1,2,taskload,19,BuyerSeller,NA,Low,Performance,8,7.2517
buysell_within2,27389,1,2,taskload,19,BuyerSeller,NA,Low,Pleasure,1,4.1862
buysell_within2,27389,1,2,taskload,19,BuyerSeller,NA,Low,Meaning,2,2.4282
buysell_within2,27389,1,2,taskload,20,BuyerSeller,NA,Medium,Physical,21,1.562
buysell_within2,27389,1,2,taskload,20,BuyerSeller,NA,Medium,Meaning,1,1.828
buysell_within2,27389,1,2,taskload,20,BuyerSeller,NA,Medium,Efficient,1,1.4617
buysell_within2,27389,1,2,taskload,20,BuyerSeller,NA,Medium,Pleasure,1,1.6296
buysell_within2,27389,1,2,taskload,20,BuyerSeller,NA,Medium,Performance,1,2.1628
buysell_within2,27389,1,2,taskload,20,BuyerSeller,NA,Medium,Frustration,21,3.9446
buysell_within2,27389,1,2,taskload,20,BuyerSeller,NA,Medium,Depend,1,2.3116
buysell_within2,27389,1,2,taskload,20,BuyerSeller,NA,Medium,Mental,21,2.9463
buysell_within2,27389,1,2,taskload,20,BuyerSeller,NA,Medium,Effort,21,2.2466
buysell_within2,27389,1,2,taskload,20,BuyerSeller,NA,Medium,Temporal,5,4.0306
buysell_within2,27389,1,2,taskload,21,BuyerSeller,NA,High,Performance,1,6.1453
buysell_within2,27389,1,2,taskload,21,BuyerSeller,NA,High,Meaning,1,2.2935
buysell_within2,27389,1,2,taskload,21,BuyerSeller,NA,High,Depend,1,1.2963
buysell_within2,27389,1,2,taskload,21,BuyerSeller,NA,High,Effort,21,2.2947
buysell_within2,27389,1,2,taskload,21,BuyerSeller,NA,High,Mental,21,2.862
buysell_within2,27389,1,2,taskload,21,BuyerSeller,NA,High,Frustration,21,1.5453
buysell_within2,27389,1,2,taskload,21,BuyerSeller,NA,High,Efficient,1,1.6291
buysell_within2,27389,1,2,taskload,21,BuyerSeller,NA,High,Pleasure,1,3.8803
buysell_within2,27389,1,2,taskload,21,BuyerSeller,NA,High,Physical,21,4.7459
buysell_within2,27389,1,2,taskload,21,BuyerSeller,NA,High,Temporal,1,2.9114
buysell_within2,37382,1,1,main,1,SellerBuyer,Seller,Low,NA,2.951565256,8.6269
buysell_within2,37382,1,1,main,2,SellerBuyer,Seller,Medium,NA,4.008399471,2.6446
buysell_within2,37382,1,1,main,3,SellerBuyer,Seller,High,NA,4.986353616,3.2954
buysell_within2,37382,1,1,main,4,SellerBuyer,Seller,Low,NA,2.019003527,0.837
buysell_within2,37382,1,1,main,5,SellerBuyer,Seller,High,NA,4.936904762,0.9233
buysell_within2,37382,1,1,main,6,SellerBuyer,Seller,Medium,NA,3.01856261,2.1699
buysell_within2,37382,1,1,main,7,SellerBuyer,Seller,High,NA,3.993099647,3.3128
buysell_within2,37382,1,1,main,8,SellerBuyer,Seller,Medium,NA,3.056569665,0.8234
buysell_within2,37382,1,1,main,9,SellerBuyer,Seller,Low,NA,1,2.9892
buysell_within2,37382,1,1,main,10,SellerBuyer,Buyer,Medium,NA,2.992350088,0.8381
buysell_within2,37382,1,1,main,11,SellerBuyer,Buyer,Low,NA,1,3.4975
buysell_within2,37382,1,1,main,12,SellerBuyer,Buyer,High,NA,3.007958554,2.4666
buysell_within2,37382,1,1,main,13,SellerBuyer,Buyer,Medium,NA,3.013514109,33.746
buysell_within2,37382,1,1,main,14,SellerBuyer,Buyer,High,NA,3.991512346,3.0064
buysell_within2,37382,1,1,main,15,SellerBuyer,Buyer,Low,NA,1.003637566,4.4918
buysell_within2,37382,1,1,main,16,SellerBuyer,Buyer,High,NA,4.995723104,1.1814
buysell_within2,37382,1,1,main,17,SellerBuyer,Buyer,Low,NA,1.0039903,15.0267
buysell_within2,37382,1,1,main,18,SellerBuyer,Buyer,Medium,NA,1.929100529,13.7847
buysell_within2,37382,1,1,taskload,19,SellerBuyer,NA,Low,Effort,3,8.21
buysell_within2,37382,1,1,taskload,19,SellerBuyer,NA,Low,Physical,5,5.7384
buysell_within2,37382,1,1,taskload,19,SellerBuyer,NA,Low,Efficient,5,3.3565
buysell_within2,37382,1,1,taskload,19,SellerBuyer,NA,Low,Depend,5,3.3433
buysell_within2,37382,1,1,taskload,19,SellerBuyer,NA,Low,Pleasure,10,5.0291
buysell_within2,37382,1,1,taskload,19,SellerBuyer,NA,Low,Meaning,4,3.6232
buysell_within2,37382,1,1,taskload,19,SellerBuyer,NA,Low,Mental,4,0.8953
buysell_within2,37382,1,1,taskload,19,SellerBuyer,NA,Low,Temporal,5,0.8289
buysell_within2,37382,1,1,taskload,19,SellerBuyer,NA,Low,Frustration,5,0.6698
buysell_within2,37382,1,1,taskload,19,SellerBuyer,NA,Low,Performance,6,1.073
buysell_within2,37382,1,1,taskload,20,SellerBuyer,NA,Medium,Effort,10,4.0218
buysell_within2,37382,1,1,taskload,20,SellerBuyer,NA,Medium,Meaning,10,0.5033
buysell_within2,37382,1,1,taskload,20,SellerBuyer,NA,Medium,Pleasure,10,0.536
buysell_within2,37382,1,1,taskload,20,SellerBuyer,NA,Medium,Depend,10,0.448
buysell_within2,37382,1,1,taskload,20,SellerBuyer,NA,Medium,Frustration,10,0.5568
buysell_within2,37382,1,1,taskload,20,SellerBuyer,NA,Medium,Mental,10,0.8057
buysell_within2,37382,1,1,taskload,20,SellerBuyer,NA,Medium,Performance,10,0.498
buysell_within2,37382,1,1,taskload,20,SellerBuyer,NA,Medium,Efficient,10,0.4987
buysell_within2,37382,1,1,taskload,20,SellerBuyer,NA,Medium,Temporal,9,0.6452
buysell_within2,37382,1,1,taskload,21,SellerBuyer,NA,High,Physical,10,0.4076
buysell_within2,37382,1,1,taskload,21,SellerBuyer,NA,High,Temporal,7,0.7026
buysell_within2,37382,1,1,taskload,21,SellerBuyer,NA,High,Pleasure,9,0.4042
buysell_within2,37382,1,1,taskload,21,SellerBuyer,NA,High,Efficient,7,0.7139
buysell_within2,37382,1,1,taskload,21,SellerBuyer,NA,High,Frustration,8,0.2609
buysell_within2,37382,1,1,taskload,21,SellerBuyer,NA,High,Meaning,7,0.4716
buysell_within2,37382,1,1,taskload,21,SellerBuyer,NA,High,Performance,6,0.3635
buysell_within2,37574,1,2,main,1,BuyerSeller,Buyer,Low,NA,1.038443507,8.289
buysell_within2,37574,1,2,main,2,BuyerSeller,Buyer,Medium,NA,1.023441163,3.49
buysell_within2,37574,1,2,main,3,BuyerSeller,Buyer,High,NA,2.037398374,1.988
buysell_within2,37574,1,2,main,4,BuyerSeller,Buyer,Low,NA,2.037398374,4.575
buysell_within2,37574,1,2,main,5,BuyerSeller,Buyer,High,NA,1.022764228,1.106
buysell_within2,37574,1,2,main,6,BuyerSeller,Buyer,Medium,NA,1.946341463,1.373
buysell_within2,37574,1,2,main,7,BuyerSeller,Buyer,High,NA,1.985365854,1.139
buysell_within2,37574,1,2,main,8,BuyerSeller,Buyer,Medium,NA,2.017886179,1.209
buysell_within2,37574,1,2,main,9,BuyerSeller,Buyer,Low,NA,2.017886179,7.708
buysell_within2,37574,1,2,main,10,BuyerSeller,Seller,Medium,NA,2.115447154,5.271
buysell_within2,37574,1,2,main,11,BuyerSeller,Seller,Low,NA,2.583739837,3.876
buysell_within2,37574,1,2,main,12,BuyerSeller,Seller,High,NA,2.544715447,5.726
buysell_within2,37574,1,2,main,13,BuyerSeller,Seller,Medium,NA,2.856910569,1.539
buysell_within2,37574,1,2,main,14,BuyerSeller,Seller,High,NA,3.247154472,1.477
buysell_within2,37574,1,2,main,15,BuyerSeller,Seller,Low,NA,1.985365854,1.91
buysell_within2,37574,1,2,main,16,BuyerSeller,Seller,High,NA,3.02601626,2.024
buysell_within2,37574,1,2,main,17,BuyerSeller,Seller,Low,NA,2.030894309,1.01
buysell_within2,37574,1,2,main,18,BuyerSeller,Seller,Medium,NA,2.421138211,7.81
buysell_within2,37574,1,2,taskload,19,BuyerSeller,NA,Low,Frustration,6,8.909
buysell_within2,37574,1,2,taskload,19,BuyerSeller,NA,Low,Performance,9,9.203
buysell_within2,37574,1,2,taskload,19,BuyerSeller,NA,Low,Pleasure,5,6.891
buysell_within2,37574,1,2,taskload,19,BuyerSeller,NA,Low,Efficient,6,6.574
buysell_within2,37574,1,2,taskload,19,BuyerSeller,NA,Low,Physical,8,5.24
buysell_within2,37574,1,2,taskload,19,BuyerSeller,NA,Low,Depend,11,11.872
buysell_within2,37574,1,2,taskload,19,BuyerSeller,NA,Low,Mental,8,4.505
buysell_within2,37574,1,2,taskload,19,BuyerSeller,NA,Low,Effort,5,6.71
buysell_within2,37574,1,2,taskload,19,BuyerSeller,NA,Low,Meaning,2,4.772
buysell_within2,37574,1,2,taskload,19,BuyerSeller,NA,Low,Temporal,4,7.624
buysell_within2,37574,1,2,taskload,20,BuyerSeller,NA,Medium,Depend,6,30.054
buysell_within2,37574,1,2,taskload,20,BuyerSeller,NA,Medium,Efficient,2,5.458
buysell_within2,37574,1,2,taskload,20,BuyerSeller,NA,Medium,Meaning,3,5.692
buysell_within2,37574,1,2,taskload,20,BuyerSeller,NA,Medium,Effort,7,4.543
buysell_within2,37574,1,2,taskload,20,BuyerSeller,NA,Medium,Physical,7,2.074
buysell_within2,37574,1,2,taskload,20,BuyerSeller,NA,Medium,Temporal,5,5.423
buysell_within2,37574,1,2,taskload,20,BuyerSeller,NA,Medium,Mental,7,2.872
buysell_within2,37574,1,2,taskload,20,BuyerSeller,NA,Medium,Frustration,6,4.524
buysell_within2,37574,1,2,taskload,20,BuyerSeller,NA,Medium,Pleasure,2,3.176
buysell_within2,37574,1,2,taskload,20,BuyerSeller,NA,Medium,Performance,10,3.853
buysell_within2,37574,1,2,taskload,21,BuyerSeller,NA,High,Frustration,8,5.879
buysell_within2,37574,1,2,taskload,21,BuyerSeller,NA,High,Pleasure,2,3.605
buysell_within2,37574,1,2,taskload,21,BuyerSeller,NA,High,Temporal,2,4.04
buysell_within2,37574,1,2,taskload,21,BuyerSeller,NA,High,Efficient,3,2.14
buysell_within2,37574,1,2,taskload,21,BuyerSeller,NA,High,Depend,4,3.337
buysell_within2,37574,1,2,taskload,21,BuyerSeller,NA,High,Performance,10,4.505
buysell_within2,37574,1,2,taskload,21,BuyerSeller,NA,High,Meaning,3,5.607
buysell_within2,37574,1,2,taskload,21,BuyerSeller,NA,High,Mental,8,7.974
buysell_within2,38897,1,2,main,1,BuyerSeller,Buyer,Low,NA,1,13.68
buysell_within2,38897,1,2,main,2,BuyerSeller,Buyer,Medium,NA,1,7.973
buysell_within2,38897,1,2,main,3,BuyerSeller,Buyer,High,NA,1,6.3332
buysell_within2,38897,1,2,main,4,BuyerSeller,Buyer,Low,NA,1,1.8761
buysell_within2,38897,1,2,main,5,BuyerSeller,Buyer,High,NA,1,5.8886
buysell_within2,38897,1,2,main,6,BuyerSeller,Buyer,Medium,NA,1,2.1548
buysell_within2,38897,1,2,main,7,BuyerSeller,Buyer,High,NA,1,3.6902
buysell_within2,38897,1,2,main,8,BuyerSeller,Buyer,Medium,NA,1,3.6016
buysell_within2,38897,1,2,main,9,BuyerSeller,Buyer,Low,NA,1,2.6917
buysell_within2,38897,1,2,main,10,BuyerSeller,Seller,Medium,NA,5,20.2138
buysell_within2,38897,1,2,main,11,BuyerSeller,Seller,Low,NA,5,2.9129
buysell_within2,38897,1,2,main,12,BuyerSeller,Seller,High,NA,5,2.2747
buysell_within2,38897,1,2,main,13,BuyerSeller,Seller,Medium,NA,5,2.0488
buysell_within2,38897,1,2,main,14,BuyerSeller,Seller,High,NA,5,5.4832
buysell_within2,38897,1,2,main,15,BuyerSeller,Seller,Low,NA,5,2.5535
buysell_within2,38897,1,2,main,16,BuyerSeller,Seller,High,NA,4.943333333,3.4435
buysell_within2,38897,1,2,main,17,BuyerSeller,Seller,Low,NA,5,2.1378
buysell_within2,38897,1,2,main,18,BuyerSeller,Seller,Medium,NA,5,22.4558
buysell_within2,38897,1,2,taskload,19,BuyerSeller,NA,Low,Mental,1,6.967
buysell_within2,38897,1,2,taskload,19,BuyerSeller,NA,Low,Meaning,2,6.66
buysell_within2,38897,1,2,taskload,19,BuyerSeller,NA,Low,Physical,10,8.0561
buysell_within2,38897,1,2,taskload,19,BuyerSeller,NA,Low,Efficient,10,6.0979
buysell_within2,38897,1,2,taskload,19,BuyerSeller,NA,Low,Effort,3,7.7609
buysell_within2,38897,1,2,taskload,19,BuyerSeller,NA,Low,Performance,2,11.1816
buysell_within2,38897,1,2,taskload,19,BuyerSeller,NA,Low,Pleasure,2,7.2595
buysell_within2,38897,1,2,taskload,19,BuyerSeller,NA,Low,Frustration,20,8.4962
buysell_within2,38897,1,2,taskload,19,BuyerSeller,NA,Low,Depend,11,11.9204
buysell_within2,38897,1,2,taskload,19,BuyerSeller,NA,Low,Temporal,6,11.3991
buysell_within2,38897,1,2,taskload,20,BuyerSeller,NA,Medium,Physical,3,11362.571
buysell_within2,38897,1,2,taskload,20,BuyerSeller,NA,Medium,Temporal,3,4.7512
buysell_within2,38897,1,2,taskload,20,BuyerSeller,NA,Medium,Pleasure,2,7.6343
buysell_within2,38897,1,2,taskload,20,BuyerSeller,NA,Medium,Depend,8,12.7229
buysell_within2,38897,1,2,taskload,20,BuyerSeller,NA,Medium,Mental,2,4.43
buysell_within2,38897,1,2,taskload,20,BuyerSeller,NA,Medium,Efficient,8,6.6508
buysell_within2,38897,1,2,taskload,20,BuyerSeller,NA,Medium,Performance,1,3.3708
buysell_within2,38897,1,2,taskload,20,BuyerSeller,NA,Medium,Effort,2,3.1755
buysell_within2,38897,1,2,taskload,20,BuyerSeller,NA,Medium,Meaning,3,3.3388
buysell_within2,38897,1,2,taskload,20,BuyerSeller,NA,Medium,Frustration,20,3.5182
buysell_within2,38897,1,2,taskload,21,BuyerSeller,NA,High,Frustration,20,3.1594
buysell_within2,38897,1,2,taskload,21,BuyerSeller,NA,High,Pleasure,1,2.6393
buysell_within2,38897,1,2,taskload,21,BuyerSeller,NA,High,Physical,2,2.3141
buysell_within2,38897,1,2,taskload,21,BuyerSeller,NA,High,Temporal,3,4.4725
buysell_within2,38897,1,2,taskload,21,BuyerSeller,NA,High,Meaning,3,2.327
buysell_within2,38897,1,2,taskload,21,BuyerSeller,NA,High,Efficient,9,2.635
buysell_within2,38897,1,2,taskload,21,BuyerSeller,NA,High,Mental,2,2.4712
buysell_within2,38897,1,2,taskload,21,BuyerSeller,NA,High,Effort,2,3.2653
buysell_within2,38897,1,2,taskload,21,BuyerSeller,NA,High,Depend,4,3.6351
buysell_within2,38897,1,2,taskload,21,BuyerSeller,NA,High,Performance,1,4.0672
buysell_within2,40358,1,1,main,1,SellerBuyer,Seller,Low,NA,5,5.406
buysell_within2,40358,1,1,main,2,SellerBuyer,Seller,Medium,NA,5,3.813
buysell_within2,40358,1,1,main,3,SellerBuyer,Seller,High,NA,5,3.947
buysell_within2,40358,1,1,main,4,SellerBuyer,Seller,Low,NA,5,4.847
buysell_within2,40358,1,1,main,5,SellerBuyer,Seller,High,NA,5,4.013
buysell_within2,40358,1,1,main,6,SellerBuyer,Seller,Medium,NA,5,3.529
buysell_within2,40358,1,1,main,7,SellerBuyer,Seller,High,NA,5,3.245
buysell_within2,40358,1,1,main,8,SellerBuyer,Seller,Medium,NA,5,2.612
buysell_within2,40358,1,1,main,9,SellerBuyer,Seller,Low,NA,5,3.279
buysell_within2,40358,1,1,main,10,SellerBuyer,Buyer,Medium,NA,1,9.645
buysell_within2,40358,1,1,main,11,SellerBuyer,Buyer,Low,NA,2.525925926,8.279
buysell_within2,40358,1,1,main,12,SellerBuyer,Buyer,High,NA,1,2.513
buysell_within2,40358,1,1,main,13,SellerBuyer,Buyer,Medium,NA,1,3.163
buysell_within2,40358,1,1,main,14,SellerBuyer,Buyer,High,NA,1.216296296,4.615
buysell_within2,40358,1,1,main,15,SellerBuyer,Buyer,Low,NA,1,2.129
buysell_within2,40358,1,1,main,16,SellerBuyer,Buyer,High,NA,1,2.364
buysell_within2,40358,1,1,main,17,SellerBuyer,Buyer,Low,NA,1,4.414
buysell_within2,40358,1,1,main,18,SellerBuyer,Buyer,Medium,NA,1,2.382
buysell_within2,40358,1,1,taskload,19,SellerBuyer,NA,Low,Effort,5,11.629
buysell_within2,40358,1,1,taskload,19,SellerBuyer,NA,Low,Mental,1,4.583
buysell_within2,40358,1,1,taskload,19,SellerBuyer,NA,Low,Meaning,2,5.582
buysell_within2,40358,1,1,taskload,19,SellerBuyer,NA,Low,Temporal,11,7.283
buysell_within2,40358,1,1,taskload,19,SellerBuyer,NA,Low,Efficient,21,8.182
buysell_within2,40358,1,1,taskload,19,SellerBuyer,NA,Low,Pleasure,21,3.828
buysell_within2,40358,1,1,taskload,19,SellerBuyer,NA,Low,Frustration,1,4.681
buysell_within2,40358,1,1,taskload,19,SellerBuyer,NA,Low,Performance,1,4.716
buysell_within2,40358,1,1,taskload,19,SellerBuyer,NA,Low,Depend,21,5.297
buysell_within2,40358,1,1,taskload,19,SellerBuyer,NA,Low,Physical,1,2.661
buysell_within2,40358,1,1,taskload,20,SellerBuyer,NA,Medium,Physical,15,8.328
buysell_within2,40358,1,1,taskload,20,SellerBuyer,NA,Medium,Pleasure,8,2.817
buysell_within2,40358,1,1,taskload,20,SellerBuyer,NA,Medium,Depend,21,4.75
buysell_within2,40358,1,1,taskload,20,SellerBuyer,NA,Medium,Effort,15,4.949
buysell_within2,40358,1,1,taskload,20,SellerBuyer,NA,Medium,Efficient,7,8.16
buysell_within2,40358,1,1,taskload,20,SellerBuyer,NA,Medium,Performance,1,3.697
buysell_within2,40358,1,1,taskload,20,SellerBuyer,NA,Medium,Meaning,2,3.149
buysell_within2,40358,1,1,taskload,20,SellerBuyer,NA,Medium,Mental,13,4.815
buysell_within2,40358,1,1,taskload,20,SellerBuyer,NA,Medium,Frustration,11,3.593
buysell_within2,40358,1,1,taskload,20,SellerBuyer,NA,Medium,Temporal,1,3.663
buysell_within2,40358,1,1,taskload,21,SellerBuyer,NA,High,Pleasure,1,3.594
buysell_within2,40358,1,1,taskload,21,SellerBuyer,NA,High,Efficient,1,4.749
buysell_within2,40358,1,1,taskload,21,SellerBuyer,NA,High,Depend,21,3.716
buysell_within2,40358,1,1,taskload,21,SellerBuyer,NA,High,Performance,1,3.25
buysell_within2,40358,1,1,taskload,21,SellerBuyer,NA,High,Temporal,1,3.615
buysell_within2,40358,1,1,taskload,21,SellerBuyer,NA,High,Mental,18,4.183
buysell_within2,40358,1,1,taskload,21,SellerBuyer,NA,High,Frustration,12,3.663
buysell_within2,40358,1,1,taskload,21,SellerBuyer,NA,High,Effort,12,6.549
buysell_within2,40358,1,1,taskload,21,SellerBuyer,NA,High,Physical,11,7.116
buysell_within2,40358,1,1,taskload,21,SellerBuyer,NA,High,Meaning,2,3.829
buysell_within2,40543,1,1,main,1,SellerBuyer,Seller,Low,NA,2.514212963,16.2687
buysell_within2,40543,1,1,main,2,SellerBuyer,Seller,Medium,NA,3.500578704,9.3281
buysell_within2,40543,1,1,main,3,SellerBuyer,Seller,High,NA,4.030763889,7.9634
buysell_within2,40543,1,1,main,4,SellerBuyer,Seller,Low,NA,2.542731481,8.5018
buysell_within2,40543,1,1,main,5,SellerBuyer,Seller,High,NA,2.994976852,4.0024
buysell_within2,40543,1,1,main,6,SellerBuyer,Seller,Medium,NA,2.001041667,3.5287
buysell_within2,40543,1,1,main,7,SellerBuyer,Seller,High,NA,4.030578704,3.5514
buysell_within2,40543,1,1,main,8,SellerBuyer,Seller,Medium,NA,3.995138889,5.0637
buysell_within2,40543,1,1,main,9,SellerBuyer,Seller,Low,NA,2.041527778,5.552
buysell_within2,40543,1,1,main,10,SellerBuyer,Buyer,Medium,NA,1.243935185,8.7345
buysell_within2,40543,1,1,main,11,SellerBuyer,Buyer,Low,NA,1.337268519,2.8098
buysell_within2,40543,1,1,main,12,SellerBuyer,Buyer,High,NA,2.341967593,9.7149
buysell_within2,40543,1,1,main,13,SellerBuyer,Buyer,Medium,NA,3.016018519,3.1802
buysell_within2,40543,1,1,main,14,SellerBuyer,Buyer,High,NA,2.012824074,5.1639
buysell_within2,40543,1,1,main,15,SellerBuyer,Buyer,Low,NA,2.735902778,3.3193
buysell_within2,40543,1,1,main,16,SellerBuyer,Buyer,High,NA,1.689212963,7.2028
buysell_within2,40543,1,1,main,17,SellerBuyer,Buyer,Low,NA,2.508842593,6.3141
buysell_within2,40543,1,1,main,18,SellerBuyer,Buyer,Medium,NA,1.79400463,4.4019
buysell_within2,40543,1,1,taskload,19,SellerBuyer,NA,Low,Frustration,1,9.2303
buysell_within2,40543,1,1,taskload,19,SellerBuyer,NA,Low,Physical,1,3.9688
buysell_within2,40543,1,1,taskload,19,SellerBuyer,NA,Low,Performance,1,4.9966
buysell_within2,40543,1,1,taskload,19,SellerBuyer,NA,Low,Depend,15,10.646
buysell_within2,40543,1,1,taskload,19,SellerBuyer,NA,Low,Mental,1,2.6809
buysell_within2,40543,1,1,taskload,19,SellerBuyer,NA,Low,Effort,1,4.2644
buysell_within2,40543,1,1,taskload,19,SellerBuyer,NA,Low,Efficient,17,4.2521
buysell_within2,40543,1,1,taskload,19,SellerBuyer,NA,Low,Temporal,4,10.4131
buysell_within2,40543,1,1,taskload,19,SellerBuyer,NA,Low,Pleasure,15,4.682
buysell_within2,40543,1,1,taskload,19,SellerBuyer,NA,Low,Meaning,11,3.328
buysell_within2,40543,1,1,taskload,20,SellerBuyer,NA,Medium,Frustration,1,3.1808
buysell_within2,40543,1,1,taskload,20,SellerBuyer,NA,Medium,Pleasure,17,3.4974
buysell_within2,40543,1,1,taskload,20,SellerBuyer,NA,Medium,Performance,1,2.5282
buysell_within2,40543,1,1,taskload,20,SellerBuyer,NA,Medium,Mental,1,1.9628
buysell_within2,40543,1,1,taskload,20,SellerBuyer,NA,Medium,Temporal,2,2.8975
buysell_within2,40543,1,1,taskload,20,SellerBuyer,NA,Medium,Efficient,17,2.2801
buysell_within2,40543,1,1,taskload,20,SellerBuyer,NA,Medium,Physical,1,1.9959
buysell_within2,40543,1,1,taskload,20,SellerBuyer,NA,Medium,Effort,1,1.9297
buysell_within2,40543,1,1,taskload,20,SellerBuyer,NA,Medium,Meaning,11,2.3784
buysell_within2,40543,1,1,taskload,20,SellerBuyer,NA,Medium,Depend,11,13.9691
buysell_within2,40543,1,1,taskload,21,SellerBuyer,NA,High,Temporal,11,8.8555
buysell_within2,40543,1,1,taskload,21,SellerBuyer,NA,High,Performance,1,2.1642
buysell_within2,40543,1,1,taskload,21,SellerBuyer,NA,High,Frustration,6,2.2685
buysell_within2,40543,1,1,taskload,21,SellerBuyer,NA,High,Meaning,7,9.9363
buysell_within2,40543,1,1,taskload,21,SellerBuyer,NA,High,Mental,1,2.5614
buysell_within2,40543,1,1,taskload,21,SellerBuyer,NA,High,Efficient,17,5.5284
buysell_within2,40543,1,1,taskload,21,SellerBuyer,NA,High,Physical,1,1.5653
buysell_within2,40543,1,1,taskload,21,SellerBuyer,NA,High,Depend,16,4.5989
buysell_within2,40543,1,1,taskload,21,SellerBuyer,NA,High,Pleasure,16,3.0815
buysell_within2,40543,1,1,taskload,21,SellerBuyer,NA,High,Effort,4,3.1528
buysell_within2,40590,1,2,main,1,BuyerSeller,Buyer,Low,NA,1.011766803,7.7779
buysell_within2,40590,1,2,main,2,BuyerSeller,Buyer,Medium,NA,1,7.331
buysell_within2,40590,1,2,main,3,BuyerSeller,Buyer,High,NA,1,4.4823
buysell_within2,40590,1,2,main,4,BuyerSeller,Buyer,Low,NA,1,3.0605
buysell_within2,40590,1,2,main,5,BuyerSeller,Buyer,High,NA,1,3.4635
buysell_within2,40590,1,2,main,6,BuyerSeller,Buyer,Medium,NA,1,2.1156
buysell_within2,40590,1,2,main,7,BuyerSeller,Buyer,High,NA,1,3.6594
buysell_within2,40590,1,2,main,8,BuyerSeller,Buyer,Medium,NA,1,2.866
buysell_within2,40590,1,2,main,9,BuyerSeller,Buyer,Low,NA,1,3.483
buysell_within2,40590,1,2,main,10,BuyerSeller,Seller,Medium,NA,1.498840216,9.4319
buysell_within2,40590,1,2,main,11,BuyerSeller,Seller,Low,NA,1.500518043,2.0982
buysell_within2,40590,1,2,main,12,BuyerSeller,Seller,High,NA,1.781040737,2.6815
buysell_within2,40590,1,2,main,13,BuyerSeller,Seller,Medium,NA,1.842147507,7.6642
buysell_within2,40590,1,2,main,14,BuyerSeller,Seller,High,NA,1.76249845,5.2494
buysell_within2,40590,1,2,main,15,BuyerSeller,Seller,Low,NA,1.716842758,1.8193
buysell_within2,40590,1,2,main,16,BuyerSeller,Seller,High,NA,1.775611979,3.016
buysell_within2,40590,1,2,main,17,BuyerSeller,Seller,Low,NA,1.570458829,1.5198
buysell_within2,40590,1,2,main,18,BuyerSeller,Seller,Medium,NA,1.59031467,4.0198
buysell_within2,40590,1,2,taskload,19,BuyerSeller,NA,Low,Frustration,15,13.7157
buysell_within2,40590,1,2,taskload,19,BuyerSeller,NA,Low,Meaning,12,5.8848
buysell_within2,40590,1,2,taskload,19,BuyerSeller,NA,Low,Depend,13,7.6853
buysell_within2,40590,1,2,taskload,19,BuyerSeller,NA,Low,Pleasure,3,2.6501
buysell_within2,40590,1,2,taskload,19,BuyerSeller,NA,Low,Efficient,9,2.9855
buysell_within2,40590,1,2,taskload,19,BuyerSeller,NA,Low,Physical,5,1.7533
buysell_within2,40590,1,2,taskload,19,BuyerSeller,NA,Low,Effort,5,3.7146
buysell_within2,40590,1,2,taskload,19,BuyerSeller,NA,Low,Temporal,6,3.613
buysell_within2,40590,1,2,taskload,19,BuyerSeller,NA,Low,Performance,4,5.0816
buysell_within2,40590,1,2,taskload,19,BuyerSeller,NA,Low,Mental,7,2.752
buysell_within2,40590,1,2,taskload,20,BuyerSeller,NA,Medium,Depend,13,8.6328
buysell_within2,40590,1,2,taskload,20,BuyerSeller,NA,Medium,Effort,4,31.8646
buysell_within2,40590,1,2,taskload,20,BuyerSeller,NA,Medium,Frustration,17,2.5488
buysell_within2,40590,1,2,taskload,20,BuyerSeller,NA,Medium,Efficient,8,4.9813
buysell_within2,40590,1,2,taskload,20,BuyerSeller,NA,Medium,Temporal,5,3.6156
buysell_within2,40590,1,2,taskload,20,BuyerSeller,NA,Medium,Mental,4,2.7131
buysell_within2,40590,1,2,taskload,20,BuyerSeller,NA,Medium,Performance,3,2.5345
buysell_within2,40590,1,2,taskload,20,BuyerSeller,NA,Medium,Pleasure,2,3.0319
buysell_within2,40590,1,2,taskload,20,BuyerSeller,NA,Medium,Meaning,10,3.999
buysell_within2,40590,1,2,taskload,20,BuyerSeller,NA,Medium,Physical,3,3.0162
buysell_within2,40590,1,2,taskload,21,BuyerSeller,NA,High,Physical,4,12.7331
buysell_within2,40590,1,2,taskload,21,BuyerSeller,NA,High,Performance,2,2.4465
buysell_within2,40590,1,2,taskload,21,BuyerSeller,NA,High,Pleasure,1,1.6802
buysell_within2,40590,1,2,taskload,21,BuyerSeller,NA,High,Frustration,20,1.8165
buysell_within2,40590,1,2,taskload,21,BuyerSeller,NA,High,Depend,15,34.8303
buysell_within2,40590,1,2,taskload,21,BuyerSeller,NA,High,Efficient,13,8.263
buysell_within2,40590,1,2,taskload,21,BuyerSeller,NA,High,Effort,2,1.6312
buysell_within2,40590,1,2,taskload,21,BuyerSeller,NA,High,Meaning,4,1.2648
buysell_within2,40590,1,2,taskload,21,BuyerSeller,NA,High,Mental,4,2.0142
buysell_within2,40590,1,2,taskload,21,BuyerSeller,NA,High,Temporal,4,1.3971
buysell_within2,40795,1,2,main,1,BuyerSeller,Buyer,Low,NA,1,8.479
buysell_within2,40795,1,2,main,2,BuyerSeller,Buyer,Medium,NA,2.063703704,2.475
buysell_within2,40795,1,2,main,3,BuyerSeller,Buyer,High,NA,1.957037037,1.581
buysell_within2,40795,1,2,main,4,BuyerSeller,Buyer,Low,NA,3.023703704,2.413
buysell_within2,40795,1,2,main,5,BuyerSeller,Buyer,High,NA,1.968888889,2.163
buysell_within2,40795,1,2,main,6,BuyerSeller,Buyer,Medium,NA,1.477037037,2.997
buysell_within2,40795,1,2,main,7,BuyerSeller,Buyer,High,NA,1,1.65
buysell_within2,40795,1,2,main,8,BuyerSeller,Buyer,Medium,NA,1.773333333,1.813
buysell_within2,40795,1,2,main,9,BuyerSeller,Buyer,Low,NA,3.13037037,1.48
buysell_within2,40795,1,2,main,10,BuyerSeller,Seller,Medium,NA,3.077037037,2.344
buysell_within2,40795,1,2,main,11,BuyerSeller,Seller,Low,NA,3.912592593,1.097
buysell_within2,40795,1,2,main,12,BuyerSeller,Seller,High,NA,2.928888889,4.897
buysell_within2,40795,1,2,main,13,BuyerSeller,Seller,Medium,NA,2.608888889,2.164
buysell_within2,40795,1,2,main,14,BuyerSeller,Seller,High,NA,3.942222222,3.398
buysell_within2,40795,1,2,main,15,BuyerSeller,Seller,Low,NA,1.927407407,1.215
buysell_within2,40795,1,2,main,16,BuyerSeller,Seller,High,NA,1.986666667,2.28
buysell_within2,40795,1,2,main,17,BuyerSeller,Seller,Low,NA,2.478518519,2.281
buysell_within2,40795,1,2,main,18,BuyerSeller,Seller,Medium,NA,1.962962963,1.164
buysell_within2,40795,1,2,taskload,19,BuyerSeller,NA,Low,Temporal,5,5.774
buysell_within2,40795,1,2,taskload,19,BuyerSeller,NA,Low,Performance,3,3.304
buysell_within2,40795,1,2,taskload,19,BuyerSeller,NA,Low,Mental,3,3.883
buysell_within2,40795,1,2,taskload,19,BuyerSeller,NA,Low,Physical,11,5.298
buysell_within2,40795,1,2,taskload,19,BuyerSeller,NA,Low,Effort,6,5.007
buysell_within2,40795,1,2,taskload,19,BuyerSeller,NA,Low,Depend,11,11.472
buysell_within2,40795,1,2,taskload,19,BuyerSeller,NA,Low,Pleasure,1,2.897
buysell_within2,40795,1,2,taskload,19,BuyerSeller,NA,Low,Efficient,12,3.312
buysell_within2,40795,1,2,taskload,19,BuyerSeller,NA,Low,Meaning,1,3.006
buysell_within2,40795,1,2,taskload,19,BuyerSeller,NA,Low,Frustration,14,3.214
buysell_within2,40795,1,2,taskload,20,BuyerSeller,NA,Medium,Physical,4,3.93
buysell_within2,40795,1,2,taskload,20,BuyerSeller,NA,Medium,Mental,3,2.608
buysell_within2,40795,1,2,taskload,20,BuyerSeller,NA,Medium,Performance,1,2.164
buysell_within2,40795,1,2,taskload,20,BuyerSeller,NA,Medium,Effort,7,2.54
buysell_within2,40795,1,2,taskload,20,BuyerSeller,NA,Medium,Frustration,8,2.748
buysell_within2,40795,1,2,taskload,20,BuyerSeller,NA,Medium,Efficient,18,3.464
buysell_within2,40795,1,2,taskload,20,BuyerSeller,NA,Medium,Pleasure,6,1.906
buysell_within2,40795,1,2,taskload,20,BuyerSeller,NA,Medium,Temporal,2,2.048
buysell_within2,40795,1,2,taskload,20,BuyerSeller,NA,Medium,Depend,11,3.127
buysell_within2,40795,1,2,taskload,20,BuyerSeller,NA,Medium,Meaning,6,1.549
buysell_within2,40795,1,2,taskload,21,BuyerSeller,NA,High,Mental,6,2.564
buysell_within2,40795,1,2,taskload,21,BuyerSeller,NA,High,Frustration,9,3.681
buysell_within2,40795,1,2,taskload,21,BuyerSeller,NA,High,Depend,8,2.223
buysell_within2,40795,1,2,taskload,21,BuyerSeller,NA,High,Performance,3,2.964
buysell_within2,40795,1,2,taskload,21,BuyerSeller,NA,High,Pleasure,2,2.814
buysell_within2,40795,1,2,taskload,21,BuyerSeller,NA,High,Temporal,4,1.465
buysell_within2,40795,1,2,taskload,21,BuyerSeller,NA,High,Effort,10,3.982
buysell_within2,40795,1,2,taskload,21,BuyerSeller,NA,High,Efficient,10,2.248
buysell_within2,40795,1,2,taskload,21,BuyerSeller,NA,High,Meaning,6,1.998
buysell_within2,40795,1,2,taskload,21,BuyerSeller,NA,High,Physical,12,1.864
buysell_within2,40956,1,1,main,1,SellerBuyer,Seller,Low,NA,2.014143519,6.772
buysell_within2,40956,1,1,main,2,SellerBuyer,Seller,Medium,NA,1.044606481,3.8626
buysell_within2,40956,1,1,main,3,SellerBuyer,Seller,High,NA,2.961643519,3.3282
buysell_within2,40956,1,1,main,4,SellerBuyer,Seller,Low,NA,4.916435185,3.9946
buysell_within2,40956,1,1,main,5,SellerBuyer,Seller,High,NA,4.950555556,1.4785
buysell_within2,40956,1,1,main,6,SellerBuyer,Seller,Medium,NA,4.993773148,1.7458
buysell_within2,40956,1,1,main,7,SellerBuyer,Seller,High,NA,4.96224537,15.813
buysell_within2,40956,1,1,main,8,SellerBuyer,Seller,Medium,NA,3.048472222,12.0452
buysell_within2,40956,1,1,main,9,SellerBuyer,Seller,Low,NA,2.039050926,2.5786
buysell_within2,40956,1,1,main,10,SellerBuyer,Buyer,Medium,NA,3.985046296,2.4617
buysell_within2,40956,1,1,main,11,SellerBuyer,Buyer,Low,NA,3.11900463,7.2118
buysell_within2,40956,1,1,main,12,SellerBuyer,Buyer,High,NA,4.956178161,4.1563
buysell_within2,40956,1,1,main,13,SellerBuyer,Buyer,Medium,NA,4.034277504,4.6444
buysell_within2,40956,1,1,main,14,SellerBuyer,Buyer,High,NA,4.025785099,1.5621
buysell_within2,40956,1,1,main,15,SellerBuyer,Buyer,Low,NA,1.047542077,1.1615
buysell_within2,40956,1,1,main,16,SellerBuyer,Buyer,High,NA,4.040152915,2.18
buysell_within2,40956,1,1,main,17,SellerBuyer,Buyer,Low,NA,1.053135263,2.4291
buysell_within2,40956,1,1,main,18,SellerBuyer,Buyer,Medium,NA,2.977652915,1.4936
buysell_within2,40956,1,1,taskload,19,SellerBuyer,NA,Low,Performance,11,18.0448
buysell_within2,40956,1,1,taskload,19,SellerBuyer,NA,Low,Meaning,10,4.7936
buysell_within2,40956,1,1,taskload,19,SellerBuyer,NA,Low,Depend,20,7.8115
buysell_within2,40956,1,1,taskload,19,SellerBuyer,NA,Low,Physical,21,3.378
buysell_within2,40956,1,1,taskload,19,SellerBuyer,NA,Low,Frustration,12,4.7439
buysell_within2,40956,1,1,taskload,19,SellerBuyer,NA,Low,Pleasure,2,2.6434
buysell_within2,40956,1,1,taskload,19,SellerBuyer,NA,Low,Effort,19,12.2105
buysell_within2,40956,1,1,taskload,19,SellerBuyer,NA,Low,Mental,16,2.5934
buysell_within2,40956,1,1,taskload,19,SellerBuyer,NA,Low,Temporal,11,3.6114
buysell_within2,40956,1,1,taskload,19,SellerBuyer,NA,Low,Efficient,5,8.4597
buysell_within2,40956,1,1,taskload,20,SellerBuyer,NA,Medium,Meaning,1,2.8107
buysell_within2,40956,1,1,taskload,20,SellerBuyer,NA,Medium,Mental,18,2.9279
buysell_within2,40956,1,1,taskload,20,SellerBuyer,NA,Medium,Physical,21,1.678
buysell_within2,40956,1,1,taskload,20,SellerBuyer,NA,Medium,Frustration,16,3.8773
buysell_within2,40956,1,1,taskload,20,SellerBuyer,NA,Medium,Efficient,3,3.6124
buysell_within2,40956,1,1,taskload,20,SellerBuyer,NA,Medium,Depend,21,4.311
buysell_within2,40956,1,1,taskload,20,SellerBuyer,NA,Medium,Effort,21,3.2443
buysell_within2,40956,1,1,taskload,20,SellerBuyer,NA,Medium,Pleasure,1,7.495
buysell_within2,40956,1,1,taskload,20,SellerBuyer,NA,Medium,Performance,6,8.7938
buysell_within2,40956,1,1,taskload,20,SellerBuyer,NA,Medium,Temporal,9,2.9627
buysell_within2,40956,1,1,taskload,21,SellerBuyer,NA,High,Frustration,18,3.8625
buysell_within2,40956,1,1,taskload,21,SellerBuyer,NA,High,Depend,21,3.7119
buysell_within2,40956,1,1,taskload,21,SellerBuyer,NA,High,Temporal,8,3.6781
buysell_within2,40956,1,1,taskload,21,SellerBuyer,NA,High,Pleasure,3,3.7775
buysell_within2,40956,1,1,taskload,21,SellerBuyer,NA,High,Performance,18,3.043
buysell_within2,40956,1,1,taskload,21,SellerBuyer,NA,High,Physical,21,1.7947
buysell_within2,40956,1,1,taskload,21,SellerBuyer,NA,High,Meaning,3,1.6773
buysell_within2,40956,1,1,taskload,21,SellerBuyer,NA,High,Mental,18,4.2949
buysell_within2,40956,1,1,taskload,21,SellerBuyer,NA,High,Efficient,3,4.7949
buysell_within2,41054,1,1,main,1,BuyerSeller,Buyer,Low,NA,1.100384964,5.3062
buysell_within2,41054,1,1,main,2,BuyerSeller,Buyer,Medium,NA,2.098097826,3.629
buysell_within2,41054,1,1,main,3,BuyerSeller,Buyer,High,NA,2.62826087,2.7793
buysell_within2,41054,1,1,main,4,BuyerSeller,Buyer,Low,NA,3.434941123,1.6474
buysell_within2,41054,1,1,main,5,BuyerSeller,Buyer,High,NA,2.63607337,1.9286
buysell_within2,41054,1,1,main,6,BuyerSeller,Buyer,Medium,NA,2.827536232,2.87
buysell_within2,41054,1,1,main,7,BuyerSeller,Buyer,High,NA,2.423278986,2.9357
buysell_within2,41054,1,1,main,8,BuyerSeller,Buyer,Medium,NA,3.216213768,3.7949
buysell_within2,41054,1,1,main,9,BuyerSeller,Buyer,Low,NA,2.491009964,10.4191
buysell_within2,41054,1,1,main,10,BuyerSeller,Seller,Medium,NA,2.445538949,3.8205
buysell_within2,41054,1,1,main,11,BuyerSeller,Seller,Low,NA,3.567617754,1.6302
buysell_within2,41054,1,1,main,12,BuyerSeller,Seller,High,NA,2.685824275,5.1033
buysell_within2,41054,1,1,main,13,BuyerSeller,Seller,Medium,NA,3.03919837,4.3621
buysell_within2,41054,1,1,main,14,BuyerSeller,Seller,High,NA,3.343931159,6.9026
buysell_within2,41054,1,1,main,15,BuyerSeller,Seller,Low,NA,2.880548007,3.4189
buysell_within2,41054,1,1,main,16,BuyerSeller,Seller,High,NA,3.385824275,9.0298
buysell_within2,41054,1,1,main,17,BuyerSeller,Seller,Low,NA,2.874841486,2.2051
buysell_within2,41054,1,1,main,18,BuyerSeller,Seller,Medium,NA,3.561684783,2.4973
buysell_within2,41054,1,1,taskload,19,BuyerSeller,NA,Low,Frustration,15,4.5219
buysell_within2,41054,1,1,taskload,19,BuyerSeller,NA,Low,Efficient,12,2.321
buysell_within2,41054,1,1,taskload,19,BuyerSeller,NA,Low,Effort,10,2.3713
buysell_within2,41054,1,1,taskload,19,BuyerSeller,NA,Low,Performance,6,5.2124
buysell_within2,41054,1,1,taskload,19,BuyerSeller,NA,Low,Meaning,8,4.67
buysell_within2,41054,1,1,taskload,19,BuyerSeller,NA,Low,Physical,11,2.3952
buysell_within2,41054,1,1,taskload,19,BuyerSeller,NA,Low,Depend,11,3.7288
buysell_within2,41054,1,1,taskload,19,BuyerSeller,NA,Low,Mental,13,2.853
buysell_within2,41054,1,1,taskload,19,BuyerSeller,NA,Low,Pleasure,9,2.2194
buysell_within2,41054,1,1,taskload,19,BuyerSeller,NA,Low,Temporal,11,4.1032
buysell_within2,41054,1,1,taskload,20,BuyerSeller,NA,Medium,Performance,3,5.6446
buysell_within2,41054,1,1,taskload,20,BuyerSeller,NA,Medium,Depend,13,5.8855
buysell_within2,41054,1,1,taskload,20,BuyerSeller,NA,Medium,Mental,11,1.6459
buysell_within2,41054,1,1,taskload,20,BuyerSeller,NA,Medium,Efficient,11,2.6887
buysell_within2,41054,1,1,taskload,20,BuyerSeller,NA,Medium,Effort,9,3.9307
buysell_within2,41054,1,1,taskload,20,BuyerSeller,NA,Medium,Physical,8,1.5687
buysell_within2,41054,1,1,taskload,20,BuyerSeller,NA,Medium,Temporal,8,5.0872
buysell_within2,41054,1,1,taskload,20,BuyerSeller,NA,Medium,Pleasure,11,3.8801
buysell_within2,41054,1,1,taskload,20,BuyerSeller,NA,Medium,Meaning,8,2.5386
buysell_within2,41054,1,1,taskload,20,BuyerSeller,NA,Medium,Frustration,16,2.1197
buysell_within2,41054,1,1,taskload,21,BuyerSeller,NA,High,Depend,17,4.522
buysell_within2,41054,1,1,taskload,21,BuyerSeller,NA,High,Mental,15,1.6039
buysell_within2,41054,1,1,taskload,21,BuyerSeller,NA,High,Meaning,10,2.8125
buysell_within2,41054,1,1,taskload,21,BuyerSeller,NA,High,Physical,14,1.0459
buysell_within2,41054,1,1,taskload,21,BuyerSeller,NA,High,Pleasure,6,1.8275
buysell_within2,41054,1,1,taskload,21,BuyerSeller,NA,High,Effort,18,2.5852
buysell_within2,41054,1,1,taskload,21,BuyerSeller,NA,High,Temporal,8,2.8518
buysell_within2,41054,1,1,taskload,21,BuyerSeller,NA,High,Performance,6,2.4446
buysell_within2,41054,1,1,taskload,21,BuyerSeller,NA,High,Efficient,7,2.2212
buysell_within2,41054,1,1,taskload,21,BuyerSeller,NA,High,Frustration,17,1.5356
buysell_within2,41535,1,1,main,1,SellerBuyer,Seller,Low,NA,2.994183933,6.347
buysell_within2,41535,1,1,main,2,SellerBuyer,Seller,Medium,NA,4.977462741,1.093
buysell_within2,41535,1,1,main,3,SellerBuyer,Seller,High,NA,4.669211196,2.527
buysell_within2,41535,1,1,main,4,SellerBuyer,Seller,Low,NA,1.470374409,1.776
buysell_within2,41535,1,1,main,5,SellerBuyer,Seller,High,NA,4.552889858,6.648
buysell_within2,41535,1,1,main,6,SellerBuyer,Seller,Medium,NA,2.581243184,11.652
buysell_within2,41535,1,1,main,7,SellerBuyer,Seller,High,NA,4.070156307,2.982
buysell_within2,41535,1,1,main,8,SellerBuyer,Seller,Medium,NA,2.81388586,2.51
buysell_within2,41535,1,1,main,9,SellerBuyer,Seller,Low,NA,1.162122864,0.46
buysell_within2,41535,1,1,main,10,SellerBuyer,Buyer,Medium,NA,2.046165031,6.034
buysell_within2,41535,1,1,main,11,SellerBuyer,Buyer,Low,NA,1.941475827,11.982
buysell_within2,41535,1,1,main,12,SellerBuyer,Buyer,High,NA,3.110505271,54.571
buysell_within2,41535,1,1,main,14,SellerBuyer,Buyer,High,NA,3.721192294,1.445
buysell_within2,41535,1,1,main,15,SellerBuyer,Buyer,Low,NA,1.889131225,0.363
buysell_within2,41535,1,1,main,16,SellerBuyer,Buyer,High,NA,3.319883679,1.076
buysell_within2,41535,1,1,main,17,SellerBuyer,Buyer,Low,NA,1.67393675,0.645
buysell_within2,41535,1,1,main,18,SellerBuyer,Buyer,Medium,NA,2.02871683,1.399
buysell_within2,41535,1,1,taskload,19,SellerBuyer,NA,Low,Physical,1,2.612
buysell_within2,41535,1,1,taskload,19,SellerBuyer,NA,Low,Temporal,7,4.878
buysell_within2,41535,1,1,taskload,19,SellerBuyer,NA,Low,Efficient,9,1.559
buysell_within2,41535,1,1,taskload,19,SellerBuyer,NA,Low,Frustration,12,2.679
buysell_within2,41535,1,1,taskload,19,SellerBuyer,NA,Low,Performance,13,8.863
buysell_within2,41535,1,1,taskload,19,SellerBuyer,NA,Low,Effort,10,0.929
buysell_within2,41535,1,1,taskload,19,SellerBuyer,NA,Low,Meaning,12,0.943
buysell_within2,41535,1,1,taskload,19,SellerBuyer,NA,Low,Mental,8,3.451
buysell_within2,41535,1,1,taskload,19,SellerBuyer,NA,Low,Pleasure,12,35.348
buysell_within2,41535,1,1,taskload,19,SellerBuyer,NA,Low,Depend,13,0.477
buysell_within2,41535,1,1,taskload,20,SellerBuyer,NA,Medium,Efficient,15,1.225
buysell_within2,41535,1,1,taskload,20,SellerBuyer,NA,Medium,Pleasure,15,0.396
buysell_within2,41535,1,1,taskload,20,SellerBuyer,NA,Medium,Physical,4,1.85
buysell_within2,41535,1,1,taskload,20,SellerBuyer,NA,Medium,Performance,16,3.185
buysell_within2,41535,1,1,taskload,20,SellerBuyer,NA,Medium,Depend,11,0.345
buysell_within2,41535,1,1,taskload,20,SellerBuyer,NA,Medium,Frustration,15,0.594
buysell_within2,41535,1,1,taskload,20,SellerBuyer,NA,Medium,Temporal,15,0.381
buysell_within2,41535,1,1,taskload,20,SellerBuyer,NA,Medium,Meaning,11,1.692
buysell_within2,41535,1,1,taskload,20,SellerBuyer,NA,Medium,Mental,10,0.328
buysell_within2,41535,1,1,taskload,20,SellerBuyer,NA,Medium,Effort,8,1.362
buysell_within2,41535,1,1,taskload,21,SellerBuyer,NA,High,Pleasure,11,1.944
buysell_within2,41535,1,1,taskload,21,SellerBuyer,NA,High,Performance,11,0.791
buysell_within2,41535,1,1,taskload,21,SellerBuyer,NA,High,Physical,11,0.424
buysell_within2,41535,1,1,taskload,21,SellerBuyer,NA,High,Mental,8,0.2
buysell_within2,41535,1,1,taskload,21,SellerBuyer,NA,High,Efficient,12,0.392
buysell_within2,41535,1,1,taskload,21,SellerBuyer,NA,High,Temporal,14,0.363
buysell_within2,41535,1,1,taskload,21,SellerBuyer,NA,High,Meaning,11,0.126
buysell_within2,41535,1,1,taskload,21,SellerBuyer,NA,High,Depend,12,0.203
buysell_within2,41535,1,1,taskload,21,SellerBuyer,NA,High,Effort,13,1.316
buysell_within2,41535,1,1,taskload,21,SellerBuyer,NA,High,Frustration,13,0.363
buysell_within2,41609,1,1,main,1,SellerBuyer,Seller,Low,NA,1,3.9917
buysell_within2,41609,1,1,main,2,SellerBuyer,Seller,Medium,NA,1.988839286,1.263
buysell_within2,41609,1,1,main,3,SellerBuyer,Seller,High,NA,3.967492816,1.879
buysell_within2,41609,1,1,main,4,SellerBuyer,Seller,Low,NA,1.007517447,1.5342
buysell_within2,41609,1,1,main,5,SellerBuyer,Seller,High,NA,2.229448892,1.5456
buysell_within2,41609,1,1,main,6,SellerBuyer,Seller,Medium,NA,2.660380747,2.2799
buysell_within2,41609,1,1,main,7,SellerBuyer,Seller,High,NA,1.968390805,1.8796
buysell_within2,41609,1,1,main,8,SellerBuyer,Seller,Medium,NA,1.404428366,1.718
buysell_within2,41609,1,1,main,9,SellerBuyer,Seller,Low,NA,1,1.8133
buysell_within2,41609,1,1,main,10,SellerBuyer,Buyer,Medium,NA,1,3.2293
buysell_within2,41609,1,1,main,11,SellerBuyer,Buyer,Low,NA,1,4.8121
buysell_within2,41609,1,1,main,12,SellerBuyer,Buyer,High,NA,2.044463259,12.6309
buysell_within2,41609,1,1,main,13,SellerBuyer,Buyer,Medium,NA,2.033482143,9.1976
buysell_within2,41609,1,1,main,14,SellerBuyer,Buyer,High,NA,3.044232348,2.0788
buysell_within2,41609,1,1,main,15,SellerBuyer,Buyer,Low,NA,1,1.9786
buysell_within2,41609,1,1,main,16,SellerBuyer,Buyer,High,NA,2.887982348,1.869
buysell_within2,41609,1,1,main,17,SellerBuyer,Buyer,Low,NA,2.427776067,4.0155
buysell_within2,41609,1,1,main,18,SellerBuyer,Buyer,Medium,NA,1.905146757,5.4483
buysell_within2,41609,1,1,taskload,19,SellerBuyer,NA,Low,Meaning,10,3.4775
buysell_within2,41609,1,1,taskload,19,SellerBuyer,NA,Low,Performance,1,3.1669
buysell_within2,41609,1,1,taskload,19,SellerBuyer,NA,Low,Frustration,7,4.5773
buysell_within2,41609,1,1,taskload,19,SellerBuyer,NA,Low,Pleasure,5,6.0808
buysell_within2,41609,1,1,taskload,19,SellerBuyer,NA,Low,Depend,2,6.5282
buysell_within2,41609,1,1,taskload,19,SellerBuyer,NA,Low,Temporal,16,2.3637
buysell_within2,41609,1,1,taskload,19,SellerBuyer,NA,Low,Efficient,20,1.9611
buysell_within2,41609,1,1,taskload,19,SellerBuyer,NA,Low,Physical,7,1.4959
buysell_within2,41609,1,1,taskload,19,SellerBuyer,NA,Low,Effort,2,2.5678
buysell_within2,41609,1,1,taskload,19,SellerBuyer,NA,Low,Mental,5,1.679
buysell_within2,41609,1,1,taskload,20,SellerBuyer,NA,Medium,Efficient,11,5.5102
buysell_within2,41609,1,1,taskload,20,SellerBuyer,NA,Medium,Effort,8,0.847
buysell_within2,41609,1,1,taskload,20,SellerBuyer,NA,Medium,Pleasure,1,2.9638
buysell_within2,41609,1,1,taskload,20,SellerBuyer,NA,Medium,Physical,14,1.3444
buysell_within2,41609,1,1,taskload,20,SellerBuyer,NA,Medium,Performance,1,1.7636
buysell_within2,41609,1,1,taskload,20,SellerBuyer,NA,Medium,Depend,14,1.9269
buysell_within2,41609,1,1,taskload,20,SellerBuyer,NA,Medium,Mental,6,2.16
buysell_within2,41609,1,1,taskload,20,SellerBuyer,NA,Medium,Meaning,6,1.4282
buysell_within2,41609,1,1,taskload,20,SellerBuyer,NA,Medium,Frustration,18,1.9158
buysell_within2,41609,1,1,taskload,20,SellerBuyer,NA,Medium,Temporal,4,6.6951
buysell_within2,41609,1,1,taskload,21,SellerBuyer,NA,High,Frustration,17,2.0619
buysell_within2,41609,1,1,taskload,21,SellerBuyer,NA,High,Mental,6,1.5123
buysell_within2,41609,1,1,taskload,21,SellerBuyer,NA,High,Pleasure,7,4.8511
buysell_within2,41609,1,1,taskload,21,SellerBuyer,NA,High,Temporal,1,15.079
buysell_within2,41609,1,1,taskload,21,SellerBuyer,NA,High,Depend,19,2.1117
buysell_within2,41609,1,1,taskload,21,SellerBuyer,NA,High,Physical,9,1.7463
buysell_within2,41609,1,1,taskload,21,SellerBuyer,NA,High,Efficient,17,1.6451
buysell_within2,41609,1,1,taskload,21,SellerBuyer,NA,High,Meaning,1,1.4951
buysell_within2,41609,1,1,taskload,21,SellerBuyer,NA,High,Performance,1,8.5805
buysell_within2,41609,1,1,taskload,21,SellerBuyer,NA,High,Effort,21,28.8129
buysell_within2,41628,1,1,main,1,SellerBuyer,Seller,Low,NA,1.987106481,6.0378
buysell_within2,41628,1,1,main,2,SellerBuyer,Seller,Medium,NA,4.536087963,5.8194
buysell_within2,41628,1,1,main,3,SellerBuyer,Seller,High,NA,3.998310185,6.8519
buysell_within2,41628,1,1,main,4,SellerBuyer,Seller,Low,NA,2.450416667,3.5741
buysell_within2,41628,1,1,main,5,SellerBuyer,Seller,High,NA,2.414537037,14.6079
buysell_within2,41628,1,1,main,6,SellerBuyer,Seller,Medium,NA,2.631203704,2.8796
buysell_within2,41628,1,1,main,7,SellerBuyer,Seller,High,NA,3.055486111,2.7451
buysell_within2,41628,1,1,main,8,SellerBuyer,Seller,Medium,NA,1.973217593,2.0114
buysell_within2,41628,1,1,main,9,SellerBuyer,Seller,Low,NA,1.543402778,2.5535
buysell_within2,41628,1,1,main,10,SellerBuyer,Buyer,Medium,NA,2.024768519,3.1692
buysell_within2,41628,1,1,main,11,SellerBuyer,Buyer,Low,NA,1.617708333,16.7128
buysell_within2,41628,1,1,main,12,SellerBuyer,Buyer,High,NA,2.501064815,3.0385
buysell_within2,41628,1,1,main,13,SellerBuyer,Buyer,Medium,NA,1.51775463,3.1194
buysell_within2,41628,1,1,main,14,SellerBuyer,Buyer,High,NA,1.966736111,14.5052
buysell_within2,41628,1,1,main,15,SellerBuyer,Buyer,Low,NA,1.083148148,1.3017
buysell_within2,41628,1,1,main,16,SellerBuyer,Buyer,High,NA,2.512592593,16.4536
buysell_within2,41628,1,1,main,17,SellerBuyer,Buyer,Low,NA,1.528148148,15.0631
buysell_within2,41628,1,1,main,18,SellerBuyer,Buyer,Medium,NA,1.414259259,3.4093
buysell_within2,41628,1,1,taskload,19,SellerBuyer,NA,Low,Efficient,11,29.1031
buysell_within2,41628,1,1,taskload,19,SellerBuyer,NA,Low,Frustration,4,5.6127
buysell_within2,41628,1,1,taskload,19,SellerBuyer,NA,Low,Effort,3,3.9308
buysell_within2,41628,1,1,taskload,19,SellerBuyer,NA,Low,Physical,2,2.6335
buysell_within2,41628,1,1,taskload,19,SellerBuyer,NA,Low,Pleasure,3,4.7618
buysell_within2,41628,1,1,taskload,19,SellerBuyer,NA,Low,Depend,11,107.0512
buysell_within2,41628,1,1,taskload,19,SellerBuyer,NA,Low,Temporal,5,2.6686
buysell_within2,41628,1,1,taskload,19,SellerBuyer,NA,Low,Mental,3,6.6035
buysell_within2,41628,1,1,taskload,19,SellerBuyer,NA,Low,Meaning,10,3.5471
buysell_within2,41628,1,1,taskload,19,SellerBuyer,NA,Low,Performance,3,4.8286
buysell_within2,41628,1,1,taskload,20,SellerBuyer,NA,Medium,Physical,3,5.6094
buysell_within2,41628,1,1,taskload,20,SellerBuyer,NA,Medium,Depend,4,3.3807
buysell_within2,41628,1,1,taskload,20,SellerBuyer,NA,Medium,Frustration,2,2.3033
buysell_within2,41628,1,1,taskload,20,SellerBuyer,NA,Medium,Pleasure,4,2.4804
buysell_within2,41628,1,1,taskload,20,SellerBuyer,NA,Medium,Meaning,10,2.3789
buysell_within2,41628,1,1,taskload,20,SellerBuyer,NA,Medium,Effort,3,3.6245
buysell_within2,41628,1,1,taskload,20,SellerBuyer,NA,Medium,Temporal,6,3.6119
buysell_within2,41628,1,1,taskload,20,SellerBuyer,NA,Medium,Efficient,9,6.2999
buysell_within2,41628,1,1,taskload,20,SellerBuyer,NA,Medium,Mental,5,1.9726
buysell_within2,41628,1,1,taskload,20,SellerBuyer,NA,Medium,Performance,5,23.7379
buysell_within2,41628,1,1,taskload,21,SellerBuyer,NA,High,Meaning,6,12.8938
buysell_within2,41628,1,1,taskload,21,SellerBuyer,NA,High,Mental,8,29.9511
buysell_within2,41628,1,1,taskload,21,SellerBuyer,NA,High,Physical,12,4.8781
buysell_within2,41628,1,1,taskload,21,SellerBuyer,NA,High,Temporal,10,2.3295
buysell_within2,41628,1,1,taskload,21,SellerBuyer,NA,High,Efficient,13,2.1841
buysell_within2,41628,1,1,taskload,21,SellerBuyer,NA,High,Depend,13,122.4435
buysell_within2,41628,1,1,taskload,21,SellerBuyer,NA,High,Effort,13,3.7173
buysell_within2,41628,1,1,taskload,21,SellerBuyer,NA,High,Pleasure,16,2.9869
buysell_within2,41628,1,1,taskload,21,SellerBuyer,NA,High,Frustration,11,3.3197
buysell_within2,41628,1,1,taskload,21,SellerBuyer,NA,High,Performance,2,2.7783
buysell_within2,42185,1,1,main,1,SellerBuyer,Seller,Low,NA,4.331986351,2.6249
buysell_within2,42185,1,1,main,2,SellerBuyer,Seller,Medium,NA,5,2.6965
buysell_within2,42185,1,1,main,3,SellerBuyer,Seller,High,NA,1.857070163,2.4123
buysell_within2,42185,1,1,main,4,SellerBuyer,Seller,Low,NA,2.078484195,1.2796
buysell_within2,42185,1,1,main,5,SellerBuyer,Seller,High,NA,5,1.8784
buysell_within2,42185,1,1,main,6,SellerBuyer,Seller,Medium,NA,3.818396791,2.0519
buysell_within2,42185,1,1,main,7,SellerBuyer,Seller,High,NA,5,1.0131
buysell_within2,42185,1,1,main,8,SellerBuyer,Seller,Medium,NA,4.058967912,1.1791
buysell_within2,42185,1,1,main,9,SellerBuyer,Seller,Low,NA,3.166187739,1.4526
buysell_within2,42185,1,1,main,10,SellerBuyer,Buyer,Medium,NA,2.786188937,1.911
buysell_within2,42185,1,1,main,11,SellerBuyer,Buyer,Low,NA,2.663403975,1.7144
buysell_within2,42185,1,1,main,12,SellerBuyer,Buyer,High,NA,5,3.8786
buysell_within2,42185,1,1,main,13,SellerBuyer,Buyer,Medium,NA,2.927292864,2.4188
buysell_within2,42185,1,1,main,14,SellerBuyer,Buyer,High,NA,2.513709291,1.4443
buysell_within2,42185,1,1,main,15,SellerBuyer,Buyer,Low,NA,3.152687979,5.0695
buysell_within2,42185,1,1,main,16,SellerBuyer,Buyer,High,NA,2.056094349,1.7479
buysell_within2,42185,1,1,main,17,SellerBuyer,Buyer,Low,NA,1.681992337,1.3642
buysell_within2,42185,1,1,main,18,SellerBuyer,Buyer,Medium,NA,2.215786638,1.298
buysell_within2,42185,1,1,taskload,19,SellerBuyer,NA,Low,Depend,19,3.684
buysell_within2,42185,1,1,taskload,19,SellerBuyer,NA,Low,Mental,15,1.8456
buysell_within2,42185,1,1,taskload,19,SellerBuyer,NA,Low,Meaning,6,1.8678
buysell_within2,42185,1,1,taskload,19,SellerBuyer,NA,Low,Frustration,13,4.1015
buysell_within2,42185,1,1,taskload,19,SellerBuyer,NA,Low,Temporal,9,2.4286
buysell_within2,42185,1,1,taskload,19,SellerBuyer,NA,Low,Performance,1,3.3297
buysell_within2,42185,1,1,taskload,19,SellerBuyer,NA,Low,Effort,13,2.4832
buysell_within2,42185,1,1,taskload,19,SellerBuyer,NA,Low,Physical,2,1.6296
buysell_within2,42185,1,1,taskload,19,SellerBuyer,NA,Low,Pleasure,4,2.4148
buysell_within2,42185,1,1,taskload,19,SellerBuyer,NA,Low,Efficient,11,2.3149
buysell_within2,42185,1,1,taskload,20,SellerBuyer,NA,Medium,Performance,6,1.9777
buysell_within2,42185,1,1,taskload,20,SellerBuyer,NA,Medium,Physical,15,2.0313
buysell_within2,42185,1,1,taskload,20,SellerBuyer,NA,Medium,Efficient,7,1.6451
buysell_within2,42185,1,1,taskload,20,SellerBuyer,NA,Medium,Depend,7,0.9818
buysell_within2,42185,1,1,taskload,20,SellerBuyer,NA,Medium,Frustration,8,0.5175
buysell_within2,42185,1,1,taskload,20,SellerBuyer,NA,Medium,Mental,11,0.6693
buysell_within2,42185,1,1,taskload,20,SellerBuyer,NA,Medium,Pleasure,14,0.3478
buysell_within2,42185,1,1,taskload,20,SellerBuyer,NA,Medium,Meaning,9,0.1797
buysell_within2,42185,1,1,taskload,20,SellerBuyer,NA,Medium,Temporal,14,0.36870000000000003
buysell_within2,42185,1,1,taskload,21,SellerBuyer,NA,High,Depend,19,3.0461
buysell_within2,42185,1,1,taskload,21,SellerBuyer,NA,High,Meaning,3,1.9815
buysell_within2,42185,1,1,taskload,21,SellerBuyer,NA,High,Temporal,7,1.9016
buysell_within2,42185,1,1,taskload,21,SellerBuyer,NA,High,Physical,7,1.4641
buysell_within2,42185,1,1,taskload,21,SellerBuyer,NA,High,Pleasure,4,1.4532
buysell_within2,42185,1,1,taskload,21,SellerBuyer,NA,High,Mental,6,1.4459
buysell_within2,42185,1,1,taskload,21,SellerBuyer,NA,High,Frustration,19,2.4628
buysell_within2,42185,1,1,taskload,21,SellerBuyer,NA,High,Efficient,5,1.7496
buysell_within2,42185,1,1,taskload,21,SellerBuyer,NA,High,Performance,1,1.5621
buysell_within2,42185,1,1,taskload,21,SellerBuyer,NA,High,Effort,18,1.8805
buysell_within2,42195,1,2,main,1,BuyerSeller,Buyer,Low,NA,1,7.9624
buysell_within2,42195,1,2,main,2,BuyerSeller,Buyer,Medium,NA,1.890856481,1.9527
buysell_within2,42195,1,2,main,3,BuyerSeller,Buyer,High,NA,3.96162037,3.4655
buysell_within2,42195,1,2,main,4,BuyerSeller,Buyer,Low,NA,1.875,2.7961
buysell_within2,42195,1,2,main,5,BuyerSeller,Buyer,High,NA,2.490625,1.1749
buysell_within2,42195,1,2,main,6,BuyerSeller,Buyer,Medium,NA,3.049444444,2.6216
buysell_within2,42195,1,2,main,7,BuyerSeller,Buyer,High,NA,1.730347222,10.3689
buysell_within2,42195,1,2,main,8,BuyerSeller,Buyer,Medium,NA,1.696134259,1.7645
buysell_within2,42195,1,2,main,9,BuyerSeller,Buyer,Low,NA,2.104444444,1.303
buysell_within2,42195,1,2,main,10,BuyerSeller,Seller,Medium,NA,2.493842593,1.6936
buysell_within2,42195,1,2,main,11,BuyerSeller,Seller,Low,NA,1.774490741,2.1464
buysell_within2,42195,1,2,main,12,BuyerSeller,Seller,High,NA,3.109652778,2.6599
buysell_within2,42195,1,2,main,13,BuyerSeller,Seller,Medium,NA,2.451041667,1.8456
buysell_within2,42195,1,2,main,14,BuyerSeller,Seller,High,NA,3.449027778,1.4632
buysell_within2,42195,1,2,main,15,BuyerSeller,Seller,Low,NA,1.552060185,2.1539
buysell_within2,42195,1,2,main,16,BuyerSeller,Seller,High,NA,3.089930556,2.6699
buysell_within2,42195,1,2,main,17,BuyerSeller,Seller,Low,NA,1.523425926,1.2847
buysell_within2,42195,1,2,main,18,BuyerSeller,Seller,Medium,NA,2.223634259,2.0637
buysell_within2,42195,1,2,taskload,19,BuyerSeller,NA,Low,Temporal,6,7.9867
buysell_within2,42195,1,2,taskload,19,BuyerSeller,NA,Low,Meaning,6,3.2656
buysell_within2,42195,1,2,taskload,19,BuyerSeller,NA,Low,Pleasure,16,2.1436
buysell_within2,42195,1,2,taskload,19,BuyerSeller,NA,Low,Performance,15,3.3835
buysell_within2,42195,1,2,taskload,19,BuyerSeller,NA,Low,Efficient,15,2.0191
buysell_within2,42195,1,2,taskload,19,BuyerSeller,NA,Low,Physical,6,1.5222
buysell_within2,42195,1,2,taskload,19,BuyerSeller,NA,Low,Depend,20,4.396
buysell_within2,42195,1,2,taskload,19,BuyerSeller,NA,Low,Frustration,4,1.9043
buysell_within2,42195,1,2,taskload,19,BuyerSeller,NA,Low,Effort,10,2.0786
buysell_within2,42195,1,2,taskload,19,BuyerSeller,NA,Low,Mental,6,1.6523
buysell_within2,42195,1,2,taskload,20,BuyerSeller,NA,Medium,Efficient,8,8.7068
buysell_within2,42195,1,2,taskload,20,BuyerSeller,NA,Medium,Frustration,9,1.5518
buysell_within2,42195,1,2,taskload,20,BuyerSeller,NA,Medium,Temporal,6,2.6785
buysell_within2,42195,1,2,taskload,20,BuyerSeller,NA,Medium,Mental,11,1.4172
buysell_within2,42195,1,2,taskload,20,BuyerSeller,NA,Medium,Performance,17,2.4599
buysell_within2,42195,1,2,taskload,20,BuyerSeller,NA,Medium,Physical,8,1.3606
buysell_within2,42195,1,2,taskload,20,BuyerSeller,NA,Medium,Meaning,8,1.4131
buysell_within2,42195,1,2,taskload,20,BuyerSeller,NA,Medium,Effort,15,1.4193
buysell_within2,42195,1,2,taskload,20,BuyerSeller,NA,Medium,Pleasure,10,1.4443
buysell_within2,42195,1,2,taskload,20,BuyerSeller,NA,Medium,Depend,19,1.7528
buysell_within2,42195,1,2,taskload,21,BuyerSeller,NA,High,Pleasure,12,3.0442
buysell_within2,42195,1,2,taskload,21,BuyerSeller,NA,High,Physical,13,1.5738
buysell_within2,42195,1,2,taskload,21,BuyerSeller,NA,High,Meaning,11,1.3196
buysell_within2,42195,1,2,taskload,21,BuyerSeller,NA,High,Performance,16,1.3836
buysell_within2,42195,1,2,taskload,21,BuyerSeller,NA,High,Mental,11,1.252
buysell_within2,42195,1,2,taskload,21,BuyerSeller,NA,High,Efficient,17,1.2307
buysell_within2,42195,1,2,taskload,21,BuyerSeller,NA,High,Frustration,10,1.2945
buysell_within2,42195,1,2,taskload,21,BuyerSeller,NA,High,Temporal,10,1.5024
buysell_within2,42195,1,2,taskload,21,BuyerSeller,NA,High,Depend,19,1.8523
buysell_within2,42195,1,2,taskload,21,BuyerSeller,NA,High,Effort,16,2.1225
buysell_within2,42213,1,2,main,1,BuyerSeller,Buyer,Low,NA,1.014814777,8.464
buysell_within2,42213,1,2,main,2,BuyerSeller,Buyer,Medium,NA,1,4.0007
buysell_within2,42213,1,2,main,3,BuyerSeller,Buyer,High,NA,1.009876581,4.66
buysell_within2,42213,1,2,main,4,BuyerSeller,Buyer,Low,NA,1.987654321,5.1186
buysell_within2,42213,1,2,main,5,BuyerSeller,Buyer,High,NA,2.945679088,2.9169
buysell_within2,42213,1,2,main,6,BuyerSeller,Buyer,Medium,NA,1,1.6004
buysell_within2,42213,1,2,main,7,BuyerSeller,Buyer,High,NA,2.644444595,6.3328
buysell_within2,42213,1,2,main,8,BuyerSeller,Buyer,Medium,NA,2.116049307,3.6657
buysell_within2,42213,1,2,main,9,BuyerSeller,Buyer,Low,NA,2.925925926,2.4984
buysell_within2,42213,1,2,main,10,BuyerSeller,Seller,Medium,NA,2.012345679,5.647
buysell_within2,42213,1,2,main,11,BuyerSeller,Seller,Low,NA,1.444444444,1.801
buysell_within2,42213,1,2,main,12,BuyerSeller,Seller,High,NA,3.45925941,3.9976
buysell_within2,42213,1,2,main,13,BuyerSeller,Seller,Medium,NA,3.039506324,2.9815
buysell_within2,42213,1,2,main,14,BuyerSeller,Seller,High,NA,2.935802695,4.1643
buysell_within2,42213,1,2,main,15,BuyerSeller,Seller,Low,NA,2.239506097,6.3663
buysell_within2,42213,1,2,main,16,BuyerSeller,Seller,High,NA,3.12345679,3.2341
buysell_within2,42213,1,2,main,17,BuyerSeller,Seller,Low,NA,1.079012459,1.6924
buysell_within2,42213,1,2,main,18,BuyerSeller,Seller,Medium,NA,1.82962978,1.9396
buysell_within2,42213,1,2,taskload,19,BuyerSeller,NA,Low,Physical,4,3.2459
buysell_within2,42213,1,2,taskload,19,BuyerSeller,NA,Low,Frustration,3,4.7758
buysell_within2,42213,1,2,taskload,19,BuyerSeller,NA,Low,Temporal,10,8.3203
buysell_within2,42213,1,2,taskload,19,BuyerSeller,NA,Low,Efficient,19,3.083
buysell_within2,42213,1,2,taskload,19,BuyerSeller,NA,Low,Effort,4,3.3521
buysell_within2,42213,1,2,taskload,19,BuyerSeller,NA,Low,Mental,3,1.8464
buysell_within2,42213,1,2,taskload,19,BuyerSeller,NA,Low,Performance,1,3.7704
buysell_within2,42213,1,2,taskload,19,BuyerSeller,NA,Low,Depend,18,6.2483
buysell_within2,42213,1,2,taskload,19,BuyerSeller,NA,Low,Meaning,2,2.3147
buysell_within2,42213,1,2,taskload,19,BuyerSeller,NA,Low,Pleasure,4,3.2056
buysell_within2,42213,1,2,taskload,20,BuyerSeller,NA,Medium,Mental,3,5.4144
buysell_within2,42213,1,2,taskload,20,BuyerSeller,NA,Medium,Depend,19,3.3701
buysell_within2,42213,1,2,taskload,20,BuyerSeller,NA,Medium,Pleasure,6,5.3504
buysell_within2,42213,1,2,taskload,20,BuyerSeller,NA,Medium,Meaning,2,1.8407
buysell_within2,42213,1,2,taskload,20,BuyerSeller,NA,Medium,Efficient,14,4.0728
buysell_within2,42213,1,2,taskload,20,BuyerSeller,NA,Medium,Frustration,5,3.7392
buysell_within2,42213,1,2,taskload,20,BuyerSeller,NA,Medium,Temporal,4,2.7821
buysell_within2,42213,1,2,taskload,20,BuyerSeller,NA,Medium,Effort,5,2.432
buysell_within2,42213,1,2,taskload,20,BuyerSeller,NA,Medium,Physical,4,4.2995
buysell_within2,42213,1,2,taskload,20,BuyerSeller,NA,Medium,Performance,1,5.0532
buysell_within2,42213,1,2,taskload,21,BuyerSeller,NA,High,Effort,6,6.5819
buysell_within2,42213,1,2,taskload,21,BuyerSeller,NA,High,Temporal,2,2.9326
buysell_within2,42213,1,2,taskload,21,BuyerSeller,NA,High,Pleasure,2,2.6645
buysell_within2,42213,1,2,taskload,21,BuyerSeller,NA,High,Mental,3,2.1995
buysell_within2,42213,1,2,taskload,21,BuyerSeller,NA,High,Efficient,3,2.2442
buysell_within2,42213,1,2,taskload,21,BuyerSeller,NA,High,Depend,20,4.7215
buysell_within2,42213,1,2,taskload,21,BuyerSeller,NA,High,Performance,1,2.7058
buysell_within2,42213,1,2,taskload,21,BuyerSeller,NA,High,Physical,3,2.6965
buysell_within2,42213,1,2,taskload,21,BuyerSeller,NA,High,Meaning,1,2.0977
buysell_within2,42213,1,2,taskload,21,BuyerSeller,NA,High,Frustration,7,3.5179
buysell_within2,42252,1,2,main,1,BuyerSeller,Buyer,Low,NA,1.02680776,4.1298
buysell_within2,42252,1,2,main,2,BuyerSeller,Buyer,Medium,NA,1,4.8513
buysell_within2,42252,1,2,main,3,BuyerSeller,Buyer,High,NA,1.37925485,1.6948
buysell_within2,42252,1,2,main,4,BuyerSeller,Buyer,Low,NA,1.605004409,3.38
buysell_within2,42252,1,2,main,5,BuyerSeller,Buyer,High,NA,1.758708113,4.5357
buysell_within2,42252,1,2,main,6,BuyerSeller,Buyer,Medium,NA,1.991997354,6.8311
buysell_within2,42252,1,2,main,7,BuyerSeller,Buyer,High,NA,3.012147266,3.1393
buysell_within2,42252,1,2,main,8,BuyerSeller,Buyer,Medium,NA,2.008179012,3.7526
buysell_within2,42252,1,2,main,9,BuyerSeller,Buyer,Low,NA,3.992702822,2.1219
buysell_within2,42252,1,2,main,10,BuyerSeller,Seller,Medium,NA,2.993209877,8.1202
buysell_within2,42252,1,2,main,11,BuyerSeller,Seller,Low,NA,1,2.3019
buysell_within2,42252,1,2,main,12,BuyerSeller,Seller,High,NA,4.924647266,0.7867
buysell_within2,42252,1,2,main,13,BuyerSeller,Seller,Medium,NA,3.010978836,6.4353
buysell_within2,42252,1,2,main,14,BuyerSeller,Seller,High,NA,3.005820106,5.0498
buysell_within2,42252,1,2,main,15,BuyerSeller,Seller,Low,NA,1.691159612,4.1432
buysell_within2,42252,1,2,main,16,BuyerSeller,Seller,High,NA,3.018276014,4.0686
buysell_within2,42252,1,2,main,17,BuyerSeller,Seller,Low,NA,1.677270723,2.9691
buysell_within2,42252,1,2,main,18,BuyerSeller,Seller,Medium,NA,2.642548501,6.1812
buysell_within2,42252,1,2,taskload,19,BuyerSeller,NA,Low,Effort,6,4.2676
buysell_within2,42252,1,2,taskload,19,BuyerSeller,NA,Low,Pleasure,6,3.82
buysell_within2,42252,1,2,taskload,19,BuyerSeller,NA,Low,Performance,5,5.4451
buysell_within2,42252,1,2,taskload,19,BuyerSeller,NA,Low,Meaning,6,6.9931
buysell_within2,42252,1,2,taskload,19,BuyerSeller,NA,Low,Temporal,6,11.8867
buysell_within2,42252,1,2,taskload,19,BuyerSeller,NA,Low,Efficient,16,13.2525
buysell_within2,42252,1,2,taskload,19,BuyerSeller,NA,Low,Mental,7,4.6547
buysell_within2,42252,1,2,taskload,19,BuyerSeller,NA,Low,Depend,21,10.0308
buysell_within2,42252,1,2,taskload,19,BuyerSeller,NA,Low,Physical,21,2.0634
buysell_within2,42252,1,2,taskload,19,BuyerSeller,NA,Low,Frustration,14,3.7324
buysell_within2,42252,1,2,taskload,20,BuyerSeller,NA,Medium,Meaning,4,4.4369
buysell_within2,42252,1,2,taskload,20,BuyerSeller,NA,Medium,Frustration,17,2.1613
buysell_within2,42252,1,2,taskload,20,BuyerSeller,NA,Medium,Physical,21,5.649
buysell_within2,42252,1,2,taskload,20,BuyerSeller,NA,Medium,Efficient,13,6.9976
buysell_within2,42252,1,2,taskload,20,BuyerSeller,NA,Medium,Depend,21,3.1185
buysell_within2,42252,1,2,taskload,20,BuyerSeller,NA,Medium,Mental,6,4.0296
buysell_within2,42252,1,2,taskload,20,BuyerSeller,NA,Medium,Performance,12,12.0001
buysell_within2,42252,1,2,taskload,20,BuyerSeller,NA,Medium,Pleasure,4,12.9985
buysell_within2,42252,1,2,taskload,20,BuyerSeller,NA,Medium,Temporal,6,20.9131
buysell_within2,42252,1,2,taskload,20,BuyerSeller,NA,Medium,Effort,21,1.8981
buysell_within2,42252,1,2,taskload,21,BuyerSeller,NA,High,Meaning,5,11.2287
buysell_within2,42252,1,2,taskload,21,BuyerSeller,NA,High,Physical,21,1.1699
buysell_within2,42252,1,2,taskload,21,BuyerSeller,NA,High,Mental,5,2.1358
buysell_within2,42252,1,2,taskload,21,BuyerSeller,NA,High,Pleasure,6,2.4265
buysell_within2,42252,1,2,taskload,21,BuyerSeller,NA,High,Performance,15,3.3039
buysell_within2,42252,1,2,taskload,21,BuyerSeller,NA,High,Temporal,15,2.283
buysell_within2,42252,1,2,taskload,21,BuyerSeller,NA,High,Depend,21,3.1951
buysell_within2,42252,1,2,taskload,21,BuyerSeller,NA,High,Effort,21,2.432
buysell_within2,42252,1,2,taskload,21,BuyerSeller,NA,High,Efficient,7,2.1445
buysell_within2,42252,1,2,taskload,21,BuyerSeller,NA,High,Frustration,20,4.1709
buysell_within2,42262,1,2,main,1,SellerBuyer,Seller,Low,NA,1,3.5438
buysell_within2,42262,1,2,main,2,SellerBuyer,Seller,Medium,NA,1.15472365,2.4177
buysell_within2,42262,1,2,main,3,SellerBuyer,Seller,High,NA,1.965911525,2.3676
buysell_within2,42262,1,2,main,4,SellerBuyer,Seller,Low,NA,1.042443231,2.3711
buysell_within2,42262,1,2,main,5,SellerBuyer,Seller,High,NA,1,17.7655
buysell_within2,42262,1,2,main,6,SellerBuyer,Seller,Medium,NA,1.024983933,2.3151
buysell_within2,42262,1,2,main,7,SellerBuyer,Seller,High,NA,1.041854113,2.5482
buysell_within2,42262,1,2,main,8,SellerBuyer,Seller,Medium,NA,1.035186375,1.3645
buysell_within2,42262,1,2,main,9,SellerBuyer,Seller,Low,NA,2.976863753,1.4015
buysell_within2,42262,1,2,main,10,SellerBuyer,Buyer,Medium,NA,1.061010101,13.7554
buysell_within2,42262,1,2,main,11,SellerBuyer,Buyer,Low,NA,1.939772727,5.7087
buysell_within2,42262,1,2,main,12,SellerBuyer,Buyer,High,NA,3.963888889,3.415
buysell_within2,42262,1,2,main,13,SellerBuyer,Buyer,Medium,NA,3.181767677,1.8683
buysell_within2,42262,1,2,main,14,SellerBuyer,Buyer,High,NA,2.875782828,5.3143
buysell_within2,42262,1,2,main,15,SellerBuyer,Buyer,Low,NA,1.009974747,0.5799
buysell_within2,42262,1,2,main,16,SellerBuyer,Buyer,High,NA,4.000833333,1.0774
buysell_within2,42262,1,2,main,17,SellerBuyer,Buyer,Low,NA,1.530479798,5.3365
buysell_within2,42262,1,2,main,18,SellerBuyer,Buyer,Medium,NA,1.955429293,116.8689
buysell_within2,42262,1,2,taskload,19,SellerBuyer,NA,Low,Physical,14,39.843
buysell_within2,42262,1,2,taskload,19,SellerBuyer,NA,Low,Frustration,18,3.625
buysell_within2,42262,1,2,taskload,19,SellerBuyer,NA,Low,Performance,10,1.6667
buysell_within2,42262,1,2,taskload,19,SellerBuyer,NA,Low,Efficient,17,1.7289
buysell_within2,42262,1,2,taskload,19,SellerBuyer,NA,Low,Meaning,8,2.4362
buysell_within2,42262,1,2,taskload,19,SellerBuyer,NA,Low,Pleasure,1,1.8553
buysell_within2,42262,1,2,taskload,19,SellerBuyer,NA,Low,Temporal,4,2.9613
buysell_within2,42262,1,2,taskload,19,SellerBuyer,NA,Low,Effort,4,2.1138
buysell_within2,42262,1,2,taskload,19,SellerBuyer,NA,Low,Mental,1,1.6033
buysell_within2,42262,1,2,taskload,19,SellerBuyer,NA,Low,Depend,2,1.0401
buysell_within2,42262,1,2,taskload,20,SellerBuyer,NA,Medium,Effort,1,2.6006
buysell_within2,42262,1,2,taskload,20,SellerBuyer,NA,Medium,Frustration,7,1.9689
buysell_within2,42262,1,2,taskload,20,SellerBuyer,NA,Medium,Mental,9,1.5908
buysell_within2,42262,1,2,taskload,20,SellerBuyer,NA,Medium,Performance,2,3.6683
buysell_within2,42262,1,2,taskload,20,SellerBuyer,NA,Medium,Efficient,16,2.0008
buysell_within2,42262,1,2,taskload,20,SellerBuyer,NA,Medium,Physical,11,1.3638
buysell_within2,42262,1,2,taskload,20,SellerBuyer,NA,Medium,Meaning,11,1.2897
buysell_within2,42262,1,2,taskload,20,SellerBuyer,NA,Medium,Temporal,5,1.1077
buysell_within2,42262,1,2,taskload,20,SellerBuyer,NA,Medium,Depend,10,1.2683
buysell_within2,42262,1,2,taskload,20,SellerBuyer,NA,Medium,Pleasure,2,0.9474
buysell_within2,42262,1,2,taskload,21,SellerBuyer,NA,High,Pleasure,1,13.2294
buysell_within2,42262,1,2,taskload,21,SellerBuyer,NA,High,Frustration,19,1.6117
buysell_within2,42262,1,2,taskload,21,SellerBuyer,NA,High,Physical,6,1.9217
buysell_within2,42262,1,2,taskload,21,SellerBuyer,NA,High,Performance,1,3.4059
buysell_within2,42262,1,2,taskload,21,SellerBuyer,NA,High,Efficient,1,2.6791
buysell_within2,42262,1,2,taskload,21,SellerBuyer,NA,High,Meaning,4,2.5509
buysell_within2,42262,1,2,taskload,21,SellerBuyer,NA,High,Effort,6,1.7288
buysell_within2,42262,1,2,taskload,21,SellerBuyer,NA,High,Depend,19,6.1138
buysell_within2,42262,1,2,taskload,21,SellerBuyer,NA,High,Temporal,2,4.0517
buysell_within2,42262,1,2,taskload,21,SellerBuyer,NA,High,Mental,3,1.7011
buysell_within2,42288,1,2,main,1,BuyerSeller,Buyer,Low,NA,4.265949074,1.8045
buysell_within2,42288,1,2,main,2,BuyerSeller,Buyer,Medium,NA,3.166643519,1.7956
buysell_within2,42288,1,2,main,3,BuyerSeller,Buyer,High,NA,1,3.1781
buysell_within2,42288,1,2,main,4,BuyerSeller,Buyer,Low,NA,5,3.9957
buysell_within2,42288,1,2,main,5,BuyerSeller,Buyer,High,NA,1.404467593,1.9961
buysell_within2,42288,1,2,main,6,BuyerSeller,Buyer,Medium,NA,1,1.4792
buysell_within2,42288,1,2,main,7,BuyerSeller,Buyer,High,NA,1.848287037,3.5798
buysell_within2,42288,1,2,main,8,BuyerSeller,Buyer,Medium,NA,1.452430556,1.8444
buysell_within2,42288,1,2,main,9,BuyerSeller,Buyer,Low,NA,1.178680556,1.6448
buysell_within2,42288,1,2,main,10,BuyerSeller,Seller,Medium,NA,1.208611111,1.4627
buysell_within2,42288,1,2,main,11,BuyerSeller,Seller,Low,NA,1.701111111,2.9791
buysell_within2,42288,1,2,main,12,BuyerSeller,Seller,High,NA,2.227037037,5.1455
buysell_within2,42288,1,2,main,13,BuyerSeller,Seller,Medium,NA,2.164606481,1.3472
buysell_within2,42288,1,2,main,14,BuyerSeller,Seller,High,NA,1.508472222,1.3125
buysell_within2,42288,1,2,main,15,BuyerSeller,Seller,Low,NA,2.922962963,1.2796
buysell_within2,42288,1,2,main,16,BuyerSeller,Seller,High,NA,2.349884259,1.2949
buysell_within2,42288,1,2,main,17,BuyerSeller,Seller,Low,NA,3.646805556,0.9143
buysell_within2,42288,1,2,main,18,BuyerSeller,Seller,Medium,NA,2.652314815,0.9633
buysell_within2,42288,1,2,taskload,19,BuyerSeller,NA,Low,Temporal,8,3.8793
buysell_within2,42288,1,2,taskload,19,BuyerSeller,NA,Low,Frustration,8,3.4618
buysell_within2,42288,1,2,taskload,19,BuyerSeller,NA,Low,Meaning,8,1.28
buysell_within2,42288,1,2,taskload,19,BuyerSeller,NA,Low,Pleasure,9,2.2137
buysell_within2,42288,1,2,taskload,19,BuyerSeller,NA,Low,Depend,10,5.3288
buysell_within2,42288,1,2,taskload,19,BuyerSeller,NA,Low,Effort,8,2.6632
buysell_within2,42288,1,2,taskload,19,BuyerSeller,NA,Low,Physical,7,1.5812
buysell_within2,42288,1,2,taskload,19,BuyerSeller,NA,Low,Efficient,11,1.3284
buysell_within2,42288,1,2,taskload,19,BuyerSeller,NA,Low,Performance,10,1.1442
buysell_within2,42288,1,2,taskload,19,BuyerSeller,NA,Low,Mental,13,0.4621
buysell_within2,42288,1,2,taskload,20,BuyerSeller,NA,Medium,Frustration,9,1.5459
buysell_within2,42288,1,2,taskload,20,BuyerSeller,NA,Medium,Mental,5,1.8792
buysell_within2,42288,1,2,taskload,20,BuyerSeller,NA,Medium,Efficient,10,0.6952
buysell_within2,42288,1,2,taskload,20,BuyerSeller,NA,Medium,Temporal,10,0.7301
buysell_within2,42288,1,2,taskload,20,BuyerSeller,NA,Medium,Effort,11,0.48
buysell_within2,42288,1,2,taskload,20,BuyerSeller,NA,Medium,Physical,9,0.7631
buysell_within2,42288,1,2,taskload,20,BuyerSeller,NA,Medium,Pleasure,9,0.6797
buysell_within2,42288,1,2,taskload,20,BuyerSeller,NA,Medium,Meaning,7,0.8133
buysell_within2,42288,1,2,taskload,20,BuyerSeller,NA,Medium,Performance,9,1.063
buysell_within2,42288,1,2,taskload,20,BuyerSeller,NA,Medium,Depend,10,0.8135
buysell_within2,42288,1,2,taskload,21,BuyerSeller,NA,High,Efficient,12,1.1616
buysell_within2,42288,1,2,taskload,21,BuyerSeller,NA,High,Performance,9,0.4982
buysell_within2,42288,1,2,taskload,21,BuyerSeller,NA,High,Physical,9,0.7798
buysell_within2,42288,1,2,taskload,21,BuyerSeller,NA,High,Mental,8,0.6531
buysell_within2,42288,1,2,taskload,21,BuyerSeller,NA,High,Frustration,13,1.7302
buysell_within2,42288,1,2,taskload,21,BuyerSeller,NA,High,Meaning,9,0.5315
buysell_within2,42288,1,2,taskload,21,BuyerSeller,NA,High,Effort,12,0.6126
buysell_within2,42288,1,2,taskload,21,BuyerSeller,NA,High,Temporal,11,0.8146
buysell_within2,42288,1,2,taskload,21,BuyerSeller,NA,High,Pleasure,11,0.8611
buysell_within2,42288,1,2,taskload,21,BuyerSeller,NA,High,Depend,11,0.6456
buysell_within2,42400,1,2,main,1,BuyerSeller,Buyer,Low,NA,1,6.3965
buysell_within2,42400,1,2,main,2,BuyerSeller,Buyer,Medium,NA,2.939311594,4.8113
buysell_within2,42400,1,2,main,3,BuyerSeller,Buyer,High,NA,2.024116848,0.7468
buysell_within2,42400,1,2,main,4,BuyerSeller,Buyer,Low,NA,1.829461051,1.8511
buysell_within2,42400,1,2,main,5,BuyerSeller,Buyer,High,NA,3.573052536,2.0946
buysell_within2,42400,1,2,main,6,BuyerSeller,Buyer,Medium,NA,2.789923007,2.7998
buysell_within2,42400,1,2,main,7,BuyerSeller,Buyer,High,NA,3.25611413,7.1453
buysell_within2,42400,1,2,main,8,BuyerSeller,Buyer,Medium,NA,2.547576993,3.3723
buysell_within2,42400,1,2,main,9,BuyerSeller,Buyer,Low,NA,1.675792572,3.5215
buysell_within2,42400,1,2,main,10,BuyerSeller,Seller,Medium,NA,5,2.5439
buysell_within2,42400,1,2,main,11,BuyerSeller,Seller,Low,NA,4.018523551,1.7875
buysell_within2,42400,1,2,main,12,BuyerSeller,Seller,High,NA,4.87669837,1.0288
buysell_within2,42400,1,2,main,13,BuyerSeller,Seller,Medium,NA,5,2.7774
buysell_within2,42400,1,2,main,14,BuyerSeller,Seller,High,NA,4.989356884,2.7851
buysell_within2,42400,1,2,main,15,BuyerSeller,Seller,Low,NA,4.136707428,2.0466
buysell_within2,42400,1,2,main,16,BuyerSeller,Seller,High,NA,4.969995471,1.3524
buysell_within2,42400,1,2,main,17,BuyerSeller,Seller,Low,NA,3.230751812,3.5036
buysell_within2,42400,1,2,main,18,BuyerSeller,Seller,Medium,NA,4.885711051,1.8469
buysell_within2,42400,1,2,taskload,19,BuyerSeller,NA,Low,Effort,11,16.5863
buysell_within2,42400,1,2,taskload,19,BuyerSeller,NA,Low,Pleasure,10,3.918
buysell_within2,42400,1,2,taskload,19,BuyerSeller,NA,Low,Depend,17,8.0131
buysell_within2,42400,1,2,taskload,19,BuyerSeller,NA,Low,Temporal,4,4.5663
buysell_within2,42400,1,2,taskload,19,BuyerSeller,NA,Low,Meaning,7,3.9146
buysell_within2,42400,1,2,taskload,19,BuyerSeller,NA,Low,Efficient,5,4.8008
buysell_within2,42400,1,2,taskload,19,BuyerSeller,NA,Low,Mental,6,2.9478
buysell_within2,42400,1,2,taskload,19,BuyerSeller,NA,Low,Performance,3,7.2803
buysell_within2,42400,1,2,taskload,19,BuyerSeller,NA,Low,Frustration,2,8.7347
buysell_within2,42400,1,2,taskload,19,BuyerSeller,NA,Low,Physical,5,4.4464
buysell_within2,42400,1,2,taskload,20,BuyerSeller,NA,Medium,Meaning,7,13.225
buysell_within2,42400,1,2,taskload,20,BuyerSeller,NA,Medium,Depend,15,3.7345
buysell_within2,42400,1,2,taskload,20,BuyerSeller,NA,Medium,Mental,3,16.8887
buysell_within2,42400,1,2,taskload,20,BuyerSeller,NA,Medium,Effort,12,6.5672
buysell_within2,42400,1,2,taskload,20,BuyerSeller,NA,Medium,Performance,9,1.4458
buysell_within2,42400,1,2,taskload,20,BuyerSeller,NA,Medium,Frustration,4,7.4156
buysell_within2,42400,1,2,taskload,20,BuyerSeller,NA,Medium,Temporal,11,14.593
buysell_within2,42400,1,2,taskload,20,BuyerSeller,NA,Medium,Physical,10,1.3809
buysell_within2,42400,1,2,taskload,20,BuyerSeller,NA,Medium,Pleasure,15,3.2004
buysell_within2,42400,1,2,taskload,20,BuyerSeller,NA,Medium,Efficient,7,3.7242
buysell_within2,42400,1,2,taskload,21,BuyerSeller,NA,High,Effort,9,6.4378
buysell_within2,42400,1,2,taskload,21,BuyerSeller,NA,High,Pleasure,8,2.4197
buysell_within2,42400,1,2,taskload,21,BuyerSeller,NA,High,Depend,16,2.318
buysell_within2,42400,1,2,taskload,21,BuyerSeller,NA,High,Temporal,7,1.6358
buysell_within2,42400,1,2,taskload,21,BuyerSeller,NA,High,Mental,5,1.878
buysell_within2,42400,1,2,taskload,21,BuyerSeller,NA,High,Meaning,5,2.2529
buysell_within2,42400,1,2,taskload,21,BuyerSeller,NA,High,Performance,5,6.3815
buysell_within2,42400,1,2,taskload,21,BuyerSeller,NA,High,Efficient,4,1.1465
buysell_within2,42400,1,2,taskload,21,BuyerSeller,NA,High,Frustration,8,2.1004
buysell_within2,42400,1,2,taskload,21,BuyerSeller,NA,High,Physical,8,2.9454
buysell_within2,42825,1,2,main,1,BuyerSeller,Buyer,Low,NA,1.016296296,11.1538
buysell_within2,42825,1,2,main,2,BuyerSeller,Buyer,Medium,NA,1.492476852,3.7635
buysell_within2,42825,1,2,main,3,BuyerSeller,Buyer,High,NA,1,3.3469
buysell_within2,42825,1,2,main,4,BuyerSeller,Buyer,Low,NA,1.078912037,2.9965
buysell_within2,42825,1,2,main,5,BuyerSeller,Buyer,High,NA,1.166412037,1.9451
buysell_within2,42825,1,2,main,6,BuyerSeller,Buyer,Medium,NA,1.171944444,4.5964
buysell_within2,42825,1,2,main,7,BuyerSeller,Buyer,High,NA,1.304768519,2.4126
buysell_within2,42825,1,2,main,8,BuyerSeller,Buyer,Medium,NA,1.514305556,3.5141
buysell_within2,42825,1,2,main,9,BuyerSeller,Buyer,Low,NA,1.159513889,4.1797
buysell_within2,42825,1,2,main,10,BuyerSeller,Seller,Medium,NA,2.64837963,4.3964
buysell_within2,42825,1,2,main,11,BuyerSeller,Seller,Low,NA,1.456990741,2.4963
buysell_within2,42825,1,2,main,12,BuyerSeller,Seller,High,NA,1.673935185,2.3795
buysell_within2,42825,1,2,main,13,BuyerSeller,Seller,Medium,NA,1.555347222,1.6807
buysell_within2,42825,1,2,main,14,BuyerSeller,Seller,High,NA,1.648912037,3.5789
buysell_within2,42825,1,2,main,15,BuyerSeller,Seller,Low,NA,1.262199074,3.2622
buysell_within2,42825,1,2,main,16,BuyerSeller,Seller,High,NA,1.398194444,2.4462
buysell_within2,42825,1,2,main,17,BuyerSeller,Seller,Low,NA,1.576574074,1.7482
buysell_within2,42825,1,2,main,18,BuyerSeller,Seller,Medium,NA,1.863032407,7.8816
buysell_within2,42825,1,2,taskload,19,BuyerSeller,NA,Low,Temporal,12,7.3606
buysell_within2,42825,1,2,taskload,19,BuyerSeller,NA,Low,Frustration,6,11.1956
buysell_within2,42825,1,2,taskload,19,BuyerSeller,NA,Low,Mental,6,3.3315
buysell_within2,42825,1,2,taskload,19,BuyerSeller,NA,Low,Performance,3,7.6798
buysell_within2,42825,1,2,taskload,19,BuyerSeller,NA,Low,Pleasure,14,4.377
buysell_within2,42825,1,2,taskload,19,BuyerSeller,NA,Low,Depend,18,5.0298
buysell_within2,42825,1,2,taskload,19,BuyerSeller,NA,Low,Physical,7,5.6959
buysell_within2,42825,1,2,taskload,19,BuyerSeller,NA,Low,Effort,6,5.6969
buysell_within2,42825,1,2,taskload,19,BuyerSeller,NA,Low,Efficient,11,4.4465
buysell_within2,42825,1,2,taskload,19,BuyerSeller,NA,Low,Meaning,11,2.8795
buysell_within2,42825,1,2,taskload,20,BuyerSeller,NA,Medium,Efficient,6,5.1779
buysell_within2,42825,1,2,taskload,20,BuyerSeller,NA,Medium,Physical,14,3.6293
buysell_within2,42825,1,2,taskload,20,BuyerSeller,NA,Medium,Mental,12,3.3136
buysell_within2,42825,1,2,taskload,20,BuyerSeller,NA,Medium,Pleasure,5,3.7298
buysell_within2,42825,1,2,taskload,20,BuyerSeller,NA,Medium,Depend,14,10.1116
buysell_within2,42825,1,2,taskload,20,BuyerSeller,NA,Medium,Meaning,9,11.5981
buysell_within2,42825,1,2,taskload,20,BuyerSeller,NA,Medium,Temporal,7,6.3967
buysell_within2,42825,1,2,taskload,20,BuyerSeller,NA,Medium,Frustration,13,5.4649
buysell_within2,42825,1,2,taskload,20,BuyerSeller,NA,Medium,Effort,14,4.0299
buysell_within2,42825,1,2,taskload,20,BuyerSeller,NA,Medium,Performance,8,11.2788
buysell_within2,42825,1,2,taskload,21,BuyerSeller,NA,High,Pleasure,3,2.7271
buysell_within2,42825,1,2,taskload,21,BuyerSeller,NA,High,Performance,10,3.9782
buysell_within2,42825,1,2,taskload,21,BuyerSeller,NA,High,Effort,17,3.5638
buysell_within2,42825,1,2,taskload,21,BuyerSeller,NA,High,Meaning,5,4.7126
buysell_within2,42825,1,2,taskload,21,BuyerSeller,NA,High,Mental,15,2.3112
buysell_within2,42825,1,2,taskload,21,BuyerSeller,NA,High,Physical,15,2.4961
buysell_within2,42825,1,2,taskload,21,BuyerSeller,NA,High,Temporal,2,3.4277
buysell_within2,42825,1,2,taskload,21,BuyerSeller,NA,High,Frustration,17,2.8947
buysell_within2,42825,1,2,taskload,21,BuyerSeller,NA,High,Efficient,9,2.8472
buysell_within2,42825,1,2,taskload,21,BuyerSeller,NA,High,Depend,15,5.0459
buysell_within2,42934,1,3,main,1,SellerBuyer,Seller,Low,NA,1.014814777,3.4946
buysell_within2,42934,1,3,main,2,SellerBuyer,Seller,Medium,NA,4.041975233,0.9401
buysell_within2,42934,1,3,main,3,SellerBuyer,Seller,High,NA,1.017074387,3.1058
buysell_within2,42934,1,3,main,4,SellerBuyer,Seller,Low,NA,4.93381295,1.3726
buysell_within2,42934,1,3,main,5,SellerBuyer,Seller,High,NA,1.023782125,1.321
buysell_within2,42934,1,3,main,6,SellerBuyer,Seller,Medium,NA,1.091292674,3.387
buysell_within2,42934,1,3,main,7,SellerBuyer,Seller,High,NA,1,13.7785
buysell_within2,42934,1,3,main,8,SellerBuyer,Seller,Medium,NA,1.952399992,1.9836
buysell_within2,42934,1,3,main,9,SellerBuyer,Seller,Low,NA,2.522813889,4.0794
buysell_within2,42934,1,3,main,10,SellerBuyer,Buyer,Medium,NA,3.81084527,5.8485
buysell_within2,42934,1,3,main,11,SellerBuyer,Buyer,Low,NA,1.964666957,3.7676
buysell_within2,42934,1,3,main,12,SellerBuyer,Buyer,High,NA,1.007843645,3.013
buysell_within2,42934,1,3,main,13,SellerBuyer,Buyer,Medium,NA,1,2.047
buysell_within2,42934,1,3,main,14,SellerBuyer,Buyer,High,NA,1.038511059,2.8359
buysell_within2,42934,1,3,main,15,SellerBuyer,Buyer,Low,NA,1.007843645,7.2124
buysell_within2,42934,1,3,main,16,SellerBuyer,Buyer,High,NA,1.848130784,6.2462
buysell_within2,42934,1,3,main,17,SellerBuyer,Buyer,Low,NA,2.019868302,2.2131
buysell_within2,42934,1,3,main,18,SellerBuyer,Buyer,Medium,NA,1.983067405,5.9503
buysell_within2,42934,1,3,taskload,19,SellerBuyer,NA,Low,Meaning,1,9.6346
buysell_within2,42934,1,3,taskload,19,SellerBuyer,NA,Low,Mental,21,3.5025
buysell_within2,42934,1,3,taskload,19,SellerBuyer,NA,Low,Effort,21,2.5745
buysell_within2,42934,1,3,taskload,19,SellerBuyer,NA,Low,Physical,21,1.731
buysell_within2,42934,1,3,taskload,19,SellerBuyer,NA,Low,Performance,16,2.8298
buysell_within2,42934,1,3,taskload,19,SellerBuyer,NA,Low,Frustration,21,5.0853
buysell_within2,42934,1,3,taskload,19,SellerBuyer,NA,Low,Pleasure,1,3.8396
buysell_within2,42934,1,3,taskload,19,SellerBuyer,NA,Low,Efficient,3,3.3768
buysell_within2,42934,1,3,taskload,19,SellerBuyer,NA,Low,Depend,9,5.6135
buysell_within2,42934,1,3,taskload,19,SellerBuyer,NA,Low,Temporal,19,2.9801
buysell_within2,42934,1,3,taskload,20,SellerBuyer,NA,Medium,Effort,21,2.8004
buysell_within2,42934,1,3,taskload,20,SellerBuyer,NA,Medium,Depend,15,2.1049
buysell_within2,42934,1,3,taskload,20,SellerBuyer,NA,Medium,Frustration,21,2.9369
buysell_within2,42934,1,3,taskload,20,SellerBuyer,NA,Medium,Meaning,1,2.171
buysell_within2,42934,1,3,taskload,20,SellerBuyer,NA,Medium,Performance,14,1.9467
buysell_within2,42934,1,3,taskload,20,SellerBuyer,NA,Medium,Pleasure,1,22.1204
buysell_within2,42934,1,3,taskload,20,SellerBuyer,NA,Medium,Efficient,1,1.5747
buysell_within2,42934,1,3,taskload,20,SellerBuyer,NA,Medium,Physical,21,2.1058
buysell_within2,42934,1,3,taskload,20,SellerBuyer,NA,Medium,Mental,21,2.1282
buysell_within2,42934,1,3,taskload,20,SellerBuyer,NA,Medium,Temporal,21,2.0536
buysell_within2,42934,1,3,taskload,21,SellerBuyer,NA,High,Performance,17,3.3805
buysell_within2,42934,1,3,taskload,21,SellerBuyer,NA,High,Efficient,1,1.5495
buysell_within2,42934,1,3,taskload,21,SellerBuyer,NA,High,Pleasure,1,1.3027
buysell_within2,42934,1,3,taskload,21,SellerBuyer,NA,High,Physical,21,1.8827
buysell_within2,42934,1,3,taskload,21,SellerBuyer,NA,High,Meaning,1,1.8453
buysell_within2,42934,1,3,taskload,21,SellerBuyer,NA,High,Mental,21,1.7502
buysell_within2,42934,1,3,taskload,21,SellerBuyer,NA,High,Temporal,21,2.0934
buysell_within2,42934,1,3,taskload,21,SellerBuyer,NA,High,Depend,17,1.9186
buysell_within2,42934,1,3,taskload,21,SellerBuyer,NA,High,Frustration,21,2.9016
buysell_within2,42934,1,3,taskload,21,SellerBuyer,NA,High,Effort,20,2.4307
buysell_within2,43343,1,3,main,1,SellerBuyer,Seller,Low,NA,1.062453704,8.1066
buysell_within2,43343,1,3,main,2,SellerBuyer,Seller,Medium,NA,3.052407407,3.4648
buysell_within2,43343,1,3,main,3,SellerBuyer,Seller,High,NA,4.101828704,5.8962
buysell_within2,43343,1,3,main,4,SellerBuyer,Seller,Low,NA,2.023981481,1.6967
buysell_within2,43343,1,3,main,5,SellerBuyer,Seller,High,NA,3.058634259,8.4189
buysell_within2,43343,1,3,main,6,SellerBuyer,Seller,Medium,NA,3.037199074,2.5797
buysell_within2,43343,1,3,main,7,SellerBuyer,Seller,High,NA,1.974444444,5.4121
buysell_within2,43343,1,3,main,8,SellerBuyer,Seller,Medium,NA,2.923935185,24.5971
buysell_within2,43343,1,3,main,9,SellerBuyer,Seller,Low,NA,3.022708333,1.6456
buysell_within2,43343,1,3,main,10,SellerBuyer,Buyer,Medium,NA,1.9375,2.6116
buysell_within2,43343,1,3,main,11,SellerBuyer,Buyer,Low,NA,4.024398148,3.53
buysell_within2,43343,1,3,main,12,SellerBuyer,Buyer,High,NA,2.966643519,1.9298
buysell_within2,43343,1,3,main,13,SellerBuyer,Buyer,Medium,NA,3.071597222,11.648
buysell_within2,43343,1,3,main,14,SellerBuyer,Buyer,High,NA,2.083703704,5.796
buysell_within2,43343,1,3,main,15,SellerBuyer,Buyer,Low,NA,1.988796296,1.9985
buysell_within2,43343,1,3,main,16,SellerBuyer,Buyer,High,NA,2.930648148,2.6621
buysell_within2,43343,1,3,main,17,SellerBuyer,Buyer,Low,NA,2.895694444,6.9457
buysell_within2,43343,1,3,main,18,SellerBuyer,Buyer,Medium,NA,2.098981481,4.31
buysell_within2,43343,1,3,taskload,19,SellerBuyer,NA,Low,Efficient,7,11.8507
buysell_within2,43343,1,3,taskload,19,SellerBuyer,NA,Low,Frustration,18,4.7275
buysell_within2,43343,1,3,taskload,19,SellerBuyer,NA,Low,Temporal,18,2.7474
buysell_within2,43343,1,3,taskload,19,SellerBuyer,NA,Low,Effort,7,3.2124
buysell_within2,43343,1,3,taskload,19,SellerBuyer,NA,Low,Performance,9,0.9618
buysell_within2,43343,1,3,taskload,19,SellerBuyer,NA,Low,Physical,10,0.6803
buysell_within2,43343,1,3,taskload,19,SellerBuyer,NA,Low,Mental,12,0.5135
buysell_within2,43343,1,3,taskload,19,SellerBuyer,NA,Low,Depend,11,0.4816
buysell_within2,43343,1,3,taskload,19,SellerBuyer,NA,Low,Meaning,11,0.3787
buysell_within2,43343,1,3,taskload,19,SellerBuyer,NA,Low,Pleasure,11,0.4619
buysell_within2,43343,1,3,taskload,20,SellerBuyer,NA,Medium,Pleasure,4,1.9341
buysell_within2,43343,1,3,taskload,20,SellerBuyer,NA,Medium,Efficient,5,1.0304
buysell_within2,43343,1,3,taskload,20,SellerBuyer,NA,Medium,Meaning,5,0.8288
buysell_within2,43343,1,3,taskload,20,SellerBuyer,NA,Medium,Effort,8,0.6812
buysell_within2,43343,1,3,taskload,20,SellerBuyer,NA,Medium,Temporal,8,0.6034
buysell_within2,43343,1,3,taskload,20,SellerBuyer,NA,Medium,Depend,8,0.4803
buysell_within2,43343,1,3,taskload,20,SellerBuyer,NA,Medium,Mental,8,0.4155
buysell_within2,43343,1,3,taskload,20,SellerBuyer,NA,Medium,Physical,8,0.4149
buysell_within2,43343,1,3,taskload,20,SellerBuyer,NA,Medium,Frustration,8,0.4196
buysell_within2,43343,1,3,taskload,20,SellerBuyer,NA,Medium,Performance,8,0.4295
buysell_within2,43343,1,3,taskload,21,SellerBuyer,NA,High,Frustration,20,10.6124
buysell_within2,43343,1,3,taskload,21,SellerBuyer,NA,High,Mental,19,6.0481
buysell_within2,43343,1,3,taskload,21,SellerBuyer,NA,High,Meaning,1,3.2791
buysell_within2,43343,1,3,taskload,21,SellerBuyer,NA,High,Physical,11,4.1113
buysell_within2,43343,1,3,taskload,21,SellerBuyer,NA,High,Performance,17,6.1969
buysell_within2,43343,1,3,taskload,21,SellerBuyer,NA,High,Efficient,2,2.3976
buysell_within2,43343,1,3,taskload,21,SellerBuyer,NA,High,Temporal,20,4.2019
buysell_within2,43343,1,3,taskload,21,SellerBuyer,NA,High,Depend,20,1.4193
buysell_within2,43343,1,3,taskload,21,SellerBuyer,NA,High,Effort,18,1.5151
buysell_within2,43343,1,3,taskload,21,SellerBuyer,NA,High,Pleasure,9,0.7854
buysell_within2,43393,1,2,main,1,BuyerSeller,Buyer,Low,NA,1.029876052,4.5998
buysell_within2,43393,1,2,main,2,BuyerSeller,Buyer,Medium,NA,1.465232304,4.9035
buysell_within2,43393,1,2,main,3,BuyerSeller,Buyer,High,NA,1.9799657,5.3028
buysell_within2,43393,1,2,main,4,BuyerSeller,Buyer,Low,NA,1,21.4559
buysell_within2,43393,1,2,main,5,BuyerSeller,Buyer,High,NA,1.969987527,3.6848
buysell_within2,43393,1,2,main,6,BuyerSeller,Buyer,Medium,NA,1.303028531,4.5556
buysell_within2,43393,1,2,main,7,BuyerSeller,Buyer,High,NA,1.435979888,6.1386
buysell_within2,43393,1,2,main,8,BuyerSeller,Buyer,Medium,NA,1,21.8352
buysell_within2,43393,1,2,main,9,BuyerSeller,Buyer,Low,NA,1,14.4851
buysell_within2,43393,1,2,main,10,BuyerSeller,Seller,Medium,NA,4.005515279,3.5869
buysell_within2,43393,1,2,main,11,BuyerSeller,Seller,Low,NA,2.994601653,2.2028
buysell_within2,43393,1,2,main,12,BuyerSeller,Seller,High,NA,4.44498363,2.3534
buysell_within2,43393,1,2,main,13,BuyerSeller,Seller,Medium,NA,4.019215778,2.2382
buysell_within2,43393,1,2,main,14,BuyerSeller,Seller,High,NA,5,11.4527
buysell_within2,43393,1,2,main,15,BuyerSeller,Seller,Low,NA,2.956949641,1.5204
buysell_within2,43393,1,2,main,16,BuyerSeller,Seller,High,NA,5,1.2023
buysell_within2,43393,1,2,main,17,BuyerSeller,Seller,Low,NA,2.991269099,0.654
buysell_within2,43393,1,2,main,18,BuyerSeller,Seller,Medium,NA,3.44515896,13.0319
buysell_within2,43393,1,2,taskload,19,BuyerSeller,NA,Low,Mental,7,3.3627
buysell_within2,43393,1,2,taskload,19,BuyerSeller,NA,Low,Meaning,13,25.4125
buysell_within2,43393,1,2,taskload,19,BuyerSeller,NA,Low,Performance,12,9.9189
buysell_within2,43393,1,2,taskload,19,BuyerSeller,NA,Low,Efficient,11,4.9531
buysell_within2,43393,1,2,taskload,19,BuyerSeller,NA,Low,Physical,6,6.217
buysell_within2,43393,1,2,taskload,19,BuyerSeller,NA,Low,Effort,9,10.9187
buysell_within2,43393,1,2,taskload,19,BuyerSeller,NA,Low,Pleasure,14,1.968
buysell_within2,43393,1,2,taskload,19,BuyerSeller,NA,Low,Depend,11,2.1951
buysell_within2,43393,1,2,taskload,19,BuyerSeller,NA,Low,Temporal,5,168.9654
buysell_within2,43393,1,2,taskload,19,BuyerSeller,NA,Low,Frustration,2,2.145
buysell_within2,43393,1,2,taskload,20,BuyerSeller,NA,Medium,Temporal,2,1.7131
buysell_within2,43393,1,2,taskload,20,BuyerSeller,NA,Medium,Frustration,2,1.1186
buysell_within2,43393,1,2,taskload,20,BuyerSeller,NA,Medium,Performance,1,2.832
buysell_within2,43393,1,2,taskload,20,BuyerSeller,NA,Medium,Effort,6,3.6189
buysell_within2,43393,1,2,taskload,20,BuyerSeller,NA,Medium,Mental,3,1.6801
buysell_within2,43393,1,2,taskload,20,BuyerSeller,NA,Medium,Efficient,17,1.613
buysell_within2,43393,1,2,taskload,20,BuyerSeller,NA,Medium,Pleasure,18,1.3011
buysell_within2,43393,1,2,taskload,20,BuyerSeller,NA,Medium,Depend,16,1.6143
buysell_within2,43393,1,2,taskload,20,BuyerSeller,NA,Medium,Physical,3,1.6297
buysell_within2,43393,1,2,taskload,20,BuyerSeller,NA,Medium,Meaning,17,2.0685
buysell_within2,43393,1,2,taskload,21,BuyerSeller,NA,High,Pleasure,16,2.0347
buysell_within2,43393,1,2,taskload,21,BuyerSeller,NA,High,Temporal,4,1.1636
buysell_within2,43393,1,2,taskload,21,BuyerSeller,NA,High,Performance,3,2.455
buysell_within2,43393,1,2,taskload,21,BuyerSeller,NA,High,Efficient,18,1.1725
buysell_within2,43393,1,2,taskload,21,BuyerSeller,NA,High,Mental,3,1.3309
buysell_within2,43393,1,2,taskload,21,BuyerSeller,NA,High,Meaning,16,1.6366
buysell_within2,43393,1,2,taskload,21,BuyerSeller,NA,High,Effort,6,2.0344
buysell_within2,43393,1,2,taskload,21,BuyerSeller,NA,High,Frustration,3,2.3462
buysell_within2,43393,1,2,taskload,21,BuyerSeller,NA,High,Depend,14,2.4639
buysell_within2,43393,1,2,taskload,21,BuyerSeller,NA,High,Physical,5,20.7958
buysell_within2,43457,1,2,main,1,BuyerSeller,Buyer,Low,NA,2.041975233,7.6334
buysell_within2,43457,1,2,main,2,BuyerSeller,Buyer,Medium,NA,2.501234643,3.1472
buysell_within2,43457,1,2,main,3,BuyerSeller,Buyer,High,NA,1.004938385,3.0349
buysell_within2,43457,1,2,main,4,BuyerSeller,Buyer,Low,NA,1.508642126,2.4964
buysell_within2,43457,1,2,main,5,BuyerSeller,Buyer,High,NA,1.765432099,3.919
buysell_within2,43457,1,2,main,6,BuyerSeller,Buyer,Medium,NA,2.170370596,6.8903
buysell_within2,43457,1,2,main,7,BuyerSeller,Buyer,High,NA,3.266666742,2.1353
buysell_within2,43457,1,2,main,8,BuyerSeller,Buyer,Medium,NA,4.007407483,5.9296
buysell_within2,43457,1,2,main,9,BuyerSeller,Buyer,Low,NA,3.192592668,7.4007
buysell_within2,43457,1,2,main,10,BuyerSeller,Seller,Medium,NA,4.516049609,10.4326
buysell_within2,43457,1,2,main,11,BuyerSeller,Seller,Low,NA,4.575308717,3.6969
buysell_within2,43457,1,2,main,13,BuyerSeller,Seller,Medium,NA,3.977777928,5.1973
buysell_within2,43457,1,2,main,14,BuyerSeller,Seller,High,NA,4.965432249,3.648
buysell_within2,43457,1,2,main,15,BuyerSeller,Seller,Low,NA,4.738271454,2.2671
buysell_within2,43457,1,2,main,17,BuyerSeller,Seller,Low,NA,4.955555857,3.6659
buysell_within2,43457,1,2,main,18,BuyerSeller,Seller,Medium,NA,4.975308642,1.5647
buysell_within2,43457,1,2,taskload,19,BuyerSeller,NA,Low,Performance,1,14.1349
buysell_within2,43457,1,2,taskload,19,BuyerSeller,NA,Low,Mental,5,17.5483
buysell_within2,43457,1,2,taskload,19,BuyerSeller,NA,Low,Physical,16,7.3575
buysell_within2,43457,1,2,taskload,19,BuyerSeller,NA,Low,Efficient,6,9.8503
buysell_within2,43457,1,2,taskload,19,BuyerSeller,NA,Low,Effort,16,3.4761
buysell_within2,43457,1,2,taskload,19,BuyerSeller,NA,Low,Temporal,6,9.2514
buysell_within2,43457,1,2,taskload,19,BuyerSeller,NA,Low,Frustration,14,5.8102
buysell_within2,43457,1,2,taskload,19,BuyerSeller,NA,Low,Depend,17,13.1663
buysell_within2,43457,1,2,taskload,19,BuyerSeller,NA,Low,Pleasure,21,6.67
buysell_within2,43457,1,2,taskload,20,BuyerSeller,NA,Medium,Physical,14,4.8205
buysell_within2,43457,1,2,taskload,20,BuyerSeller,NA,Medium,Mental,4,2.9373
buysell_within2,43457,1,2,taskload,20,BuyerSeller,NA,Medium,Pleasure,19,2.1932
buysell_within2,43457,1,2,taskload,20,BuyerSeller,NA,Medium,Frustration,5,2.4551
buysell_within2,43457,1,2,taskload,20,BuyerSeller,NA,Medium,Meaning,7,2.9708
buysell_within2,43457,1,2,taskload,20,BuyerSeller,NA,Medium,Effort,12,3.1226
buysell_within2,43457,1,2,taskload,20,BuyerSeller,NA,Medium,Temporal,11,3.1729
buysell_within2,43457,1,2,taskload,20,BuyerSeller,NA,Medium,Performance,2,4.4867
buysell_within2,43457,1,2,taskload,20,BuyerSeller,NA,Medium,Depend,16,3.7373
buysell_within2,43457,1,2,taskload,21,BuyerSeller,NA,High,Performance,7,1.7206
buysell_within2,43457,1,2,taskload,21,BuyerSeller,NA,High,Physical,16,2.2094
buysell_within2,43457,1,2,taskload,21,BuyerSeller,NA,High,Frustration,15,5.4207
buysell_within2,43457,1,2,taskload,21,BuyerSeller,NA,High,Depend,17,3.6736
buysell_within2,43457,1,2,taskload,21,BuyerSeller,NA,High,Mental,7,1.7024
buysell_within2,43457,1,2,taskload,21,BuyerSeller,NA,High,Meaning,2,5.7576
buysell_within2,43457,1,2,taskload,21,BuyerSeller,NA,High,Pleasure,17,6.2454
buysell_within2,43457,1,2,taskload,21,BuyerSeller,NA,High,Efficient,2,7.743
buysell_within2,43457,1,2,taskload,21,BuyerSeller,NA,High,Effort,15,5.8562
buysell_within2,43457,1,2,taskload,21,BuyerSeller,NA,High,Temporal,8,6.122
buysell_within2,43973,1,1,main,1,SellerBuyer,Seller,Low,NA,3.003238225,6.4274
buysell_within2,43973,1,1,main,2,SellerBuyer,Seller,Medium,NA,3.997916667,3.9468
buysell_within2,43973,1,1,main,3,SellerBuyer,Seller,High,NA,4.874569746,1.5637
buysell_within2,43973,1,1,main,4,SellerBuyer,Seller,Low,NA,2.990987319,1.3291
buysell_within2,43973,1,1,main,5,SellerBuyer,Seller,High,NA,3.998369565,2.3956
buysell_within2,43973,1,1,main,6,SellerBuyer,Seller,Medium,NA,4.037115036,3.1131
buysell_within2,43973,1,1,main,7,SellerBuyer,Seller,High,NA,4.981680254,3.5813
buysell_within2,43973,1,1,main,8,SellerBuyer,Seller,Medium,NA,3.517821558,4.9464
buysell_within2,43973,1,1,main,9,SellerBuyer,Seller,Low,NA,2.490398551,2.8798
buysell_within2,43973,1,1,main,10,SellerBuyer,Buyer,Medium,NA,3.998143116,4.9448
buysell_within2,43973,1,1,main,11,SellerBuyer,Buyer,Low,NA,3.00611413,3.1955
buysell_within2,43973,1,1,main,12,SellerBuyer,Buyer,High,NA,2.991077899,2.6786
buysell_within2,43973,1,1,main,13,SellerBuyer,Buyer,Medium,NA,2.981838768,7.7141
buysell_within2,43973,1,1,main,14,SellerBuyer,Buyer,High,NA,2.976721014,2.9294
buysell_within2,43973,1,1,main,15,SellerBuyer,Buyer,Low,NA,3.522735507,11.287
buysell_within2,43973,1,1,main,16,SellerBuyer,Buyer,High,NA,2.42647192,5.4802
buysell_within2,43973,1,1,main,17,SellerBuyer,Buyer,Low,NA,2.473460145,6.8975
buysell_within2,43973,1,1,main,18,SellerBuyer,Buyer,Medium,NA,2.991168478,5.4137
buysell_within2,43973,1,1,taskload,19,SellerBuyer,NA,Low,Meaning,12,6.2688
buysell_within2,43973,1,1,taskload,19,SellerBuyer,NA,Low,Temporal,14,5.1112
buysell_within2,43973,1,1,taskload,19,SellerBuyer,NA,Low,Mental,7,3.162
buysell_within2,43973,1,1,taskload,19,SellerBuyer,NA,Low,Effort,7,4.4693
buysell_within2,43973,1,1,taskload,19,SellerBuyer,NA,Low,Pleasure,18,2.6799
buysell_within2,43973,1,1,taskload,19,SellerBuyer,NA,Low,Depend,6,10.5136
buysell_within2,43973,1,1,taskload,19,SellerBuyer,NA,Low,Frustration,6,6.2623
buysell_within2,43973,1,1,taskload,19,SellerBuyer,NA,Low,Performance,1,6.763
buysell_within2,43973,1,1,taskload,19,SellerBuyer,NA,Low,Physical,6,2.5285
buysell_within2,43973,1,1,taskload,19,SellerBuyer,NA,Low,Efficient,15,2.4012
buysell_within2,43973,1,1,taskload,20,SellerBuyer,NA,Medium,Efficient,11,2.981
buysell_within2,43973,1,1,taskload,20,SellerBuyer,NA,Medium,Mental,12,2.3454
buysell_within2,43973,1,1,taskload,20,SellerBuyer,NA,Medium,Depend,15,6.0459
buysell_within2,43973,1,1,taskload,20,SellerBuyer,NA,Medium,Frustration,14,3.1297
buysell_within2,43973,1,1,taskload,20,SellerBuyer,NA,Medium,Performance,1,4.0453
buysell_within2,43973,1,1,taskload,20,SellerBuyer,NA,Medium,Temporal,6,5.111
buysell_within2,43973,1,1,taskload,20,SellerBuyer,NA,Medium,Meaning,12,4.6291
buysell_within2,43973,1,1,taskload,20,SellerBuyer,NA,Medium,Effort,15,7.8121
buysell_within2,43973,1,1,taskload,20,SellerBuyer,NA,Medium,Pleasure,8,4.6465
buysell_within2,43973,1,1,taskload,20,SellerBuyer,NA,Medium,Physical,16,3.1968
buysell_within2,43973,1,1,taskload,21,SellerBuyer,NA,High,Mental,18,2.7787
buysell_within2,43973,1,1,taskload,21,SellerBuyer,NA,High,Performance,1,3.6964
buysell_within2,43973,1,1,taskload,21,SellerBuyer,NA,High,Meaning,9,7.611
buysell_within2,43973,1,1,taskload,21,SellerBuyer,NA,High,Depend,18,5.4951
buysell_within2,43973,1,1,taskload,21,SellerBuyer,NA,High,Pleasure,1,2.1623
buysell_within2,43973,1,1,taskload,21,SellerBuyer,NA,High,Effort,19,3.3456
buysell_within2,43973,1,1,taskload,21,SellerBuyer,NA,High,Physical,18,2.7802
buysell_within2,43973,1,1,taskload,21,SellerBuyer,NA,High,Efficient,5,3.3794
buysell_within2,43973,1,1,taskload,21,SellerBuyer,NA,High,Frustration,21,2.3945
buysell_within2,43973,1,1,taskload,21,SellerBuyer,NA,High,Temporal,1,1.913
buysell_within2,44004,1,3,main,1,SellerBuyer,Seller,Low,NA,2.051851852,1.908
buysell_within2,44004,1,3,main,2,SellerBuyer,Seller,Medium,NA,3.023703704,1.734
buysell_within2,44004,1,3,main,3,SellerBuyer,Seller,High,NA,1.933333333,14.568
buysell_within2,44004,1,3,main,4,SellerBuyer,Seller,Low,NA,4.997037037,2.703
buysell_within2,44004,1,3,main,5,SellerBuyer,Seller,High,NA,3,1.916
buysell_within2,44004,1,3,main,6,SellerBuyer,Seller,Medium,NA,4.042962963,1.916
buysell_within2,44004,1,3,main,7,SellerBuyer,Seller,High,NA,2.01037037,9.304
buysell_within2,44004,1,3,main,8,SellerBuyer,Seller,Medium,NA,1.992592593,12.951
buysell_within2,44004,1,3,main,9,SellerBuyer,Seller,Low,NA,1.945185185,2.169
buysell_within2,44004,1,3,main,10,SellerBuyer,Buyer,Medium,NA,1.032592593,4.664
buysell_within2,44004,1,3,main,11,SellerBuyer,Buyer,Low,NA,1,2.598
buysell_within2,44004,1,3,main,12,SellerBuyer,Buyer,High,NA,3,2.567
buysell_within2,44004,1,3,main,13,SellerBuyer,Buyer,Medium,NA,3.995555556,3.732
buysell_within2,44004,1,3,main,14,SellerBuyer,Buyer,High,NA,1,2.852
buysell_within2,44004,1,3,main,15,SellerBuyer,Buyer,Low,NA,1.951111111,1.551
buysell_within2,44004,1,3,main,16,SellerBuyer,Buyer,High,NA,1.992592593,22.418
buysell_within2,44004,1,3,main,17,SellerBuyer,Buyer,Low,NA,1.980740741,4.618
buysell_within2,44004,1,3,main,18,SellerBuyer,Buyer,Medium,NA,1.957037037,1.9
buysell_within2,44004,1,3,taskload,19,SellerBuyer,NA,Low,Meaning,1,4.998
buysell_within2,44004,1,3,taskload,19,SellerBuyer,NA,Low,Effort,7,3.484
buysell_within2,44004,1,3,taskload,19,SellerBuyer,NA,Low,Mental,4,2.534
buysell_within2,44004,1,3,taskload,19,SellerBuyer,NA,Low,Efficient,2,2.469
buysell_within2,44004,1,3,taskload,19,SellerBuyer,NA,Low,Frustration,21,2.433
buysell_within2,44004,1,3,taskload,19,SellerBuyer,NA,Low,Performance,6,3.85
buysell_within2,44004,1,3,taskload,19,SellerBuyer,NA,Low,Temporal,3,2.734
buysell_within2,44004,1,3,taskload,19,SellerBuyer,NA,Low,Physical,7,3.851
buysell_within2,44004,1,3,taskload,19,SellerBuyer,NA,Low,Depend,1,3.9
buysell_within2,44004,1,3,taskload,19,SellerBuyer,NA,Low,Pleasure,2,2.634
buysell_within2,44004,1,3,taskload,20,SellerBuyer,NA,Medium,Depend,3,16.767
buysell_within2,44004,1,3,taskload,20,SellerBuyer,NA,Medium,Frustration,20,1.883
buysell_within2,44004,1,3,taskload,20,SellerBuyer,NA,Medium,Temporal,6,5.333
buysell_within2,44004,1,3,taskload,20,SellerBuyer,NA,Medium,Meaning,1,3.334
buysell_within2,44004,1,3,taskload,20,SellerBuyer,NA,Medium,Efficient,2,2.516
buysell_within2,44004,1,3,taskload,20,SellerBuyer,NA,Medium,Mental,2,2.087
buysell_within2,44004,1,3,taskload,20,SellerBuyer,NA,Medium,Pleasure,4,3.216
buysell_within2,44004,1,3,taskload,20,SellerBuyer,NA,Medium,Performance,4,3.685
buysell_within2,44004,1,3,taskload,20,SellerBuyer,NA,Medium,Physical,4,13.432
buysell_within2,44004,1,3,taskload,20,SellerBuyer,NA,Medium,Effort,3,16.204
buysell_within2,44004,1,3,taskload,21,SellerBuyer,NA,High,Mental,1,6.74
buysell_within2,44004,1,3,taskload,21,SellerBuyer,NA,High,Pleasure,1,1.885
buysell_within2,44004,1,3,taskload,21,SellerBuyer,NA,High,Meaning,1,2.547
buysell_within2,44004,1,3,taskload,21,SellerBuyer,NA,High,Effort,1,2.866
buysell_within2,44004,1,3,taskload,21,SellerBuyer,NA,High,Performance,1,2.584
buysell_within2,44004,1,3,taskload,21,SellerBuyer,NA,High,Efficient,1,2.403
buysell_within2,44004,1,3,taskload,21,SellerBuyer,NA,High,Frustration,21,4.784
buysell_within2,44004,1,3,taskload,21,SellerBuyer,NA,High,Physical,1,2.401
buysell_within2,44004,1,3,taskload,21,SellerBuyer,NA,High,Depend,1,4.417
buysell_within2,44004,1,3,taskload,21,SellerBuyer,NA,High,Temporal,12,4.103
buysell_within2,44117,1,2,main,1,BuyerSeller,Buyer,Low,NA,2.456828704,45.8744
buysell_within2,44117,1,2,main,2,BuyerSeller,Buyer,Medium,NA,1.523217593,4.0502
buysell_within2,44117,1,2,main,3,BuyerSeller,Buyer,High,NA,3.501388889,2.5195
buysell_within2,44117,1,2,main,4,BuyerSeller,Buyer,Low,NA,3.372199074,7.0282
buysell_within2,44117,1,2,main,5,BuyerSeller,Buyer,High,NA,1.540046296,39.3779
buysell_within2,44117,1,2,main,6,BuyerSeller,Buyer,Medium,NA,3.4225,6.2129
buysell_within2,44117,1,2,main,7,BuyerSeller,Buyer,High,NA,3.329282407,23.9023
buysell_within2,44117,1,2,main,8,BuyerSeller,Buyer,Medium,NA,2.542175926,7.1352
buysell_within2,44117,1,2,main,9,BuyerSeller,Buyer,Low,NA,4.456712963,2.1521
buysell_within2,44117,1,2,main,10,BuyerSeller,Seller,Medium,NA,2.511550926,2.6751
buysell_within2,44117,1,2,main,11,BuyerSeller,Seller,Low,NA,2.484421296,5.8615
buysell_within2,44117,1,2,main,12,BuyerSeller,Seller,High,NA,3.522708333,2.1241
buysell_within2,44117,1,2,main,13,BuyerSeller,Seller,Medium,NA,2.38162037,1.9115
buysell_within2,44117,1,2,main,14,BuyerSeller,Seller,High,NA,1.589699074,2.5497
buysell_within2,44117,1,2,main,15,BuyerSeller,Seller,Low,NA,4.628449074,2.5699
buysell_within2,44117,1,2,main,16,BuyerSeller,Seller,High,NA,3.413796296,1.9869
buysell_within2,44117,1,2,main,17,BuyerSeller,Seller,Low,NA,2.450717593,2.7617
