experiment_name,experiment_id,id,condition,trial,effort_level,effort_steps,effort_ans,steps_correct,scale_type,rating,rt,gender,age,nasa_tlx
effortobserve,2349,25848,Liking,1,Low,30,30,1,Liking,1.035791326,4.3363,Female,23,103
effortobserve,2349,25848,Liking,2,Medium,100,100,1,Liking,1.112965486,2.3969,Female,23,103
effortobserve,2349,25848,Liking,3,High,270,270,1,Liking,1,2.2474,Female,23,103
effortobserve,2349,25848,Liking,4,Low,30,30,1,Liking,1.015383742,2.8865,Female,23,103
effortobserve,2349,25848,Liking,5,High,270,270,1,Liking,1.053672797,0.8376,Female,23,103
effortobserve,2349,25848,Liking,6,Medium,100,100,1,Liking,3.032215032,1.622,Female,23,103
effortobserve,2349,25848,Liking,7,High,270,100,0,Liking,1.053247048,2.8929,Female,23,103
effortobserve,2349,25848,Liking,8,Medium,100,100,1,Liking,1.032016349,2.9627,Female,23,103
effortobserve,2349,25848,Liking,9,Low,30,30,1,Liking,4.996821072,1.064,Female,23,103
effortobserve,2349,25848,Liking,10,Medium,100,100,1,Liking,1.074420981,1.1117,Female,23,103
effortobserve,2349,25848,Liking,11,Low,30,30,1,Liking,1.039509537,2.6907,Female,23,103
effortobserve,2349,25848,Liking,12,High,270,30,0,Liking,1.044363079,6.5198,Female,23,103
effortobserve,2349,25848,Liking,13,Medium,100,100,1,Liking,2.944482289,3.2097,Female,23,103
effortobserve,2349,25848,Liking,14,High,270,270,1,Liking,3.084695731,0.6864,Female,23,103
effortobserve,2349,25848,Liking,15,Low,30,30,1,Liking,1.04592416,0.8252,Female,23,103
effortobserve,2349,25848,Liking,16,High,270,100,0,Liking,1.010161217,3.0979,Female,23,103
effortobserve,2349,25848,Liking,17,Low,30,30,1,Liking,1.025544959,2.6901,Female,23,103
effortobserve,2349,25848,Liking,18,Medium,100,100,1,Liking,1.152900772,3.3464,Female,23,103
effortobserve,2349,27618,Liking,1,Low,30,30,1,Liking,1.731851852,4.26,Female,22,207
effortobserve,2349,27618,Liking,2,Medium,100,100,1,Liking,1.388148148,2.738,Female,22,207
effortobserve,2349,27618,Liking,3,High,270,270,1,Liking,2.608888889,1.129,Female,22,207
effortobserve,2349,27618,Liking,4,Low,30,30,1,Liking,3.420740741,1.78,Female,22,207
effortobserve,2349,27618,Liking,5,High,270,270,1,Liking,1.157037037,1.494,Female,22,207
effortobserve,2349,27618,Liking,6,Medium,100,100,1,Liking,1.672592593,1.37,Female,22,207
effortobserve,2349,27618,Liking,7,High,270,270,1,Liking,1.58962963,1.056,Female,22,207
effortobserve,2349,27618,Liking,8,Medium,100,100,1,Liking,4.125925926,1.587,Female,22,207
effortobserve,2349,27618,Liking,9,Low,30,30,1,Liking,4.155555556,2.069,Female,22,207
effortobserve,2349,27618,Liking,10,Medium,100,100,1,Liking,4.114074074,1.184,Female,22,207
effortobserve,2349,27618,Liking,11,Low,30,30,1,Liking,4.274074074,1.926,Female,22,207
effortobserve,2349,27618,Liking,12,High,270,270,1,Liking,2.342222222,1.253,Female,22,207
effortobserve,2349,27618,Liking,13,Medium,100,100,1,Liking,4.262222222,1.93,Female,22,207
effortobserve,2349,27618,Liking,14,High,270,270,1,Liking,1.459259259,2.085,Female,22,207
effortobserve,2349,27618,Liking,15,Low,30,30,1,Liking,1.352592593,1.844,Female,22,207
effortobserve,2349,27618,Liking,16,High,270,270,1,Liking,3.154074074,2.011,Female,22,207
effortobserve,2349,27618,Liking,17,Low,30,30,1,Liking,1.885925926,1.32,Female,22,207
effortobserve,2349,27618,Liking,18,Medium,100,100,1,Liking,3.574814815,1.664,Female,22,207
effortobserve,2349,28626,Value,1,Low,30,30,1,Value,2.932118303,5.5593,Female,21,113
effortobserve,2349,28626,Value,2,Medium,100,100,1,Value,1.06881293,3.218,Female,21,113
effortobserve,2349,28626,Value,3,High,270,270,1,Value,3.036440838,2.9423,Female,21,113
effortobserve,2349,28626,Value,4,Low,30,30,1,Value,1.950934892,2.2622,Female,21,113
effortobserve,2349,28626,Value,5,High,270,270,1,Value,1.982370979,1.8726,Female,21,113
effortobserve,2349,28626,Value,6,Medium,100,100,1,Value,2.961360041,2.582,Female,21,113
effortobserve,2349,28626,Value,7,High,270,100,0,Value,2.878990546,1.0175,Female,21,113
effortobserve,2349,28626,Value,8,Medium,100,100,1,Value,2.02889448,3.2111,Female,21,113
effortobserve,2349,28626,Value,9,Low,30,30,1,Value,3.846374843,2.9391,Female,21,113
effortobserve,2349,28626,Value,10,Medium,100,100,1,Value,3.99044432,3.4257,Female,21,113
effortobserve,2349,28626,Value,11,Low,30,30,1,Value,2.002674148,1.7914,Female,21,113
effortobserve,2349,28626,Value,12,High,270,270,1,Value,2.080673234,1.6748,Female,21,113
effortobserve,2349,28626,Value,13,Medium,100,100,1,Value,2.07052112,2.1271,Female,21,113
effortobserve,2349,28626,Value,14,High,270,270,1,Value,3.804014722,1.091,Female,21,113
effortobserve,2349,28626,Value,15,Low,30,30,1,Value,1.566457411,2.0107,Female,21,113
effortobserve,2349,28626,Value,16,High,270,270,1,Value,3.726220544,1.6422,Female,21,113
effortobserve,2349,28626,Value,17,Low,30,30,1,Value,1.923225063,1.7806,Female,21,113
effortobserve,2349,28626,Value,18,Medium,100,100,1,Value,4.017460959,2.593,Female,21,113
effortobserve,2349,30160,Liking,1,Low,30,30,1,Liking,2.902097801,3.3648,Female,22,281
effortobserve,2349,30160,Liking,2,Medium,100,100,1,Liking,3.893822338,3.3394,Female,22,281
effortobserve,2349,30160,Liking,3,High,270,270,1,Liking,3.943446181,7.0062,Female,22,281
effortobserve,2349,30160,Liking,4,Low,30,30,1,Liking,3.482103588,3.0737,Female,22,281
effortobserve,2349,30160,Liking,5,High,270,270,1,Liking,2.090755208,0.7887,Female,22,281
effortobserve,2349,30160,Liking,6,Medium,100,100,1,Liking,2.598987269,2.776,Female,22,281
effortobserve,2349,30160,Liking,7,High,270,270,1,Liking,3.579918981,1.3129,Female,22,281
effortobserve,2349,30160,Liking,8,Medium,100,100,1,Liking,3.522931134,1.1084,Female,22,281
effortobserve,2349,30160,Liking,9,Low,30,30,1,Liking,4.21916956,5.1579,Female,22,281
effortobserve,2349,30160,Liking,10,Medium,100,100,1,Liking,2.868952546,1.2597,Female,22,281
effortobserve,2349,30160,Liking,11,Low,30,30,1,Liking,3.146875,1.3758,Female,22,281
effortobserve,2349,30160,Liking,12,High,270,270,1,Liking,2.710199653,0.8044,Female,22,281
effortobserve,2349,30160,Liking,13,Medium,100,100,1,Liking,2.497468171,1.8119,Female,22,281
effortobserve,2349,30160,Liking,14,High,270,270,1,Liking,2.854441551,4.9953,Female,22,281
effortobserve,2349,30160,Liking,15,Low,30,30,1,Liking,2.807957176,1.5462,Female,22,281
effortobserve,2349,30160,Liking,16,High,270,270,1,Liking,3.57884838,0.9532,Female,22,281
effortobserve,2349,30160,Liking,17,Low,30,30,1,Liking,2.68359375,1.8843,Female,22,281
effortobserve,2349,30160,Liking,18,Medium,100,100,1,Liking,4.039265046,0.5949,Female,22,281
effortobserve,2349,31476,Liking,1,Low,30,30,1,Liking,2.977714844,4.5389,Female,23,125
effortobserve,2349,31476,Liking,2,Medium,100,100,1,Liking,1.99280599,3.9228,Female,23,125
effortobserve,2349,31476,Liking,3,High,270,270,1,Liking,1.968098551,1.991,Female,23,125
effortobserve,2349,31476,Liking,4,Low,30,30,1,Liking,1.983491618,1.8842,Female,23,125
effortobserve,2349,31476,Liking,5,High,270,270,1,Liking,3.001962891,1.3826,Female,23,125
effortobserve,2349,31476,Liking,6,Medium,100,100,1,Liking,4.00578654,3.2735,Female,23,125
effortobserve,2349,31476,Liking,7,High,270,270,1,Liking,3.012623698,1.5471,Female,23,125
effortobserve,2349,31476,Liking,8,Medium,100,100,1,Liking,3.003650716,2.6155,Female,23,125
effortobserve,2349,31476,Liking,9,Low,30,30,1,Liking,1.988762207,1.5989,Female,23,125
effortobserve,2349,31476,Liking,10,Medium,100,100,1,Liking,2.997060547,2.0141,Female,23,125
effortobserve,2349,31476,Liking,11,Low,30,30,1,Liking,3.001879069,2.4649,Female,23,125
effortobserve,2349,31476,Liking,12,High,270,270,1,Liking,3.998791504,1.7141,Female,23,125
effortobserve,2349,31476,Liking,13,Medium,100,100,1,Liking,2.992409668,1.5538,Female,23,125
effortobserve,2349,31476,Liking,14,High,270,270,1,Liking,3.014801839,3.1299,Female,23,125
effortobserve,2349,31476,Liking,15,Low,30,30,1,Liking,2.97050293,1.2803,Female,23,125
effortobserve,2349,31476,Liking,16,High,270,270,1,Liking,2.990929769,1.0026,Female,23,125
effortobserve,2349,31476,Liking,17,Low,30,30,1,Liking,1.976528727,1.1071,Female,23,125
effortobserve,2349,31476,Liking,18,Medium,100,100,1,Liking,2.021068115,1.8994,Female,23,125
effortobserve,2349,31581,Value,1,Low,30,30,1,Value,1,9.925,Male,21,60
effortobserve,2349,31581,Value,2,Medium,100,100,1,Value,1.162962963,7.977,Male,21,60
effortobserve,2349,31581,Value,3,High,270,270,1,Value,1,1.759,Male,21,60
effortobserve,2349,31581,Value,4,Low,30,30,1,Value,1,2.458,Male,21,60
effortobserve,2349,31581,Value,5,High,270,270,1,Value,1.024691358,1.58,Male,21,60
effortobserve,2349,31581,Value,6,Medium,100,100,1,Value,1.118518519,1.792,Male,21,60
effortobserve,2349,31581,Value,7,High,270,270,1,Value,1.024691358,1.739,Male,21,60
effortobserve,2349,31581,Value,9,Low,30,30,1,Value,1.039506173,1.025,Male,21,60
effortobserve,2349,31581,Value,10,Medium,100,100,1,Value,1.004938272,0.921,Male,21,60
effortobserve,2349,31581,Value,11,Low,30,30,1,Value,1,4.013,Male,21,60
effortobserve,2349,31581,Value,12,High,270,270,1,Value,1.049382716,5.325,Male,21,60
effortobserve,2349,31581,Value,13,Medium,100,100,1,Value,1.024691358,5.468,Male,21,60
effortobserve,2349,31581,Value,14,High,270,100,0,Value,1.009876543,0.965,Male,21,60
effortobserve,2349,31581,Value,15,Low,30,30,1,Value,1.004938272,0.924,Male,21,60
effortobserve,2349,31581,Value,16,High,270,270,1,Value,1.044444444,2.071,Male,21,60
effortobserve,2349,31581,Value,17,Low,30,30,1,Value,1.039506173,1.172,Male,21,60
effortobserve,2349,31581,Value,18,Medium,100,100,1,Value,1.004938272,1.178,Male,21,60
effortobserve,2349,31816,Liking,1,Low,30,30,1,Liking,3,4.1888,Female,20,166
effortobserve,2349,31816,Liking,2,Medium,100,100,1,Liking,4.856790425,2.2191,Female,20,166
effortobserve,2349,31816,Liking,3,High,270,270,1,Liking,2.590123683,2.02,Female,20,166
effortobserve,2349,31816,Liking,4,Low,30,30,1,Liking,2.348148299,1.5027,Female,20,166
effortobserve,2349,31816,Liking,5,High,270,270,1,Liking,3.612345754,1.6679,Female,20,166
effortobserve,2349,31816,Liking,6,Medium,100,100,1,Liking,1.256790161,1.3186,Female,20,166
effortobserve,2349,31816,Liking,7,High,270,270,1,Liking,4.437036962,1.4538,Female,20,166
effortobserve,2349,31816,Liking,8,Medium,100,100,1,Liking,2.466666893,1.349,Female,20,166
effortobserve,2349,31816,Liking,9,Low,30,30,1,Liking,1.612345754,1.6002,Female,20,166
effortobserve,2349,31816,Liking,10,Medium,100,100,1,Liking,1.518518519,1.3857,Female,20,166
effortobserve,2349,31816,Liking,11,Low,30,30,1,Liking,2.209876543,1.4162,Female,20,166
effortobserve,2349,31816,Liking,12,High,270,270,1,Liking,2.723456865,2.0615,Female,20,166
effortobserve,2349,31816,Liking,13,Medium,100,30,0,Liking,1.735802544,1.8019,Female,20,166
effortobserve,2349,31816,Liking,14,High,270,270,1,Liking,3.711111186,1.7626,Female,20,166
effortobserve,2349,31816,Liking,15,Low,30,30,1,Liking,1.676543436,1.8331,Female,20,166
effortobserve,2349,31816,Liking,16,High,270,270,1,Liking,2.550617359,1.6845,Female,20,166
effortobserve,2349,31816,Liking,17,Low,30,30,1,Liking,1.592592593,1.3469,Female,20,166
effortobserve,2349,31816,Liking,18,Medium,100,100,1,Liking,1.562963038,1.2033,Female,20,166
effortobserve,2349,31940,Value,1,Low,30,30,1,Value,3.003703704,4.6352,Female,22,115
effortobserve,2349,31940,Value,2,Medium,100,100,1,Value,3.985185185,1.9909,Female,22,115
effortobserve,2349,31940,Value,3,High,270,270,1,Value,2.977777778,1.9042,Female,22,115
effortobserve,2349,31940,Value,4,Low,30,30,1,Value,2.977777778,4.6709,Female,22,115
effortobserve,2349,31940,Value,5,High,270,270,1,Value,3.022222222,1.2255,Female,22,115
effortobserve,2349,31940,Value,6,Medium,100,100,1,Value,1.1,0.9101,Female,22,115
effortobserve,2349,31940,Value,7,High,270,270,1,Value,2.959259259,0.8864,Female,22,115
effortobserve,2349,31940,Value,8,Medium,100,100,1,Value,1.051851852,1.4179,Female,22,115
effortobserve,2349,31940,Value,9,Low,30,30,1,Value,3.018518519,0.8697,Female,22,115
effortobserve,2349,31940,Value,10,Medium,100,100,1,Value,1.092592593,2.1847,Female,22,115
effortobserve,2349,31940,Value,11,Low,30,30,1,Value,3.018518519,0.7061,Female,22,115
effortobserve,2349,31940,Value,12,High,270,270,1,Value,2.996296296,0.6239,Female,22,115
effortobserve,2349,31940,Value,13,Medium,100,100,1,Value,1.051851852,1.8757,Female,22,115
effortobserve,2349,31940,Value,14,High,270,270,1,Value,2.792592593,4.5033,Female,22,115
effortobserve,2349,31940,Value,15,Low,30,30,1,Value,2.937037037,1.8211,Female,22,115
effortobserve,2349,31940,Value,16,High,270,270,1,Value,2.788888889,2.1362,Female,22,115
effortobserve,2349,31940,Value,17,Low,30,30,1,Value,1,5.1382,Female,22,115
effortobserve,2349,31940,Value,18,Medium,100,30,0,Value,1.003703704,2.793,Female,22,115
effortobserve,2349,32132,Value,1,Low,30,30,1,Value,2.980246914,6.5259,Male,21,198
effortobserve,2349,32132,Value,2,Medium,100,100,1,Value,4.017283951,3.3242,Male,21,198
effortobserve,2349,32132,Value,3,High,270,270,1,Value,4.930864198,1.7952,Male,21,198
effortobserve,2349,32132,Value,4,Low,30,30,1,Value,1.933333333,1.5283,Male,21,198
effortobserve,2349,32132,Value,5,High,270,270,1,Value,4.032098765,1.9985,Male,21,198
effortobserve,2349,32132,Value,6,Medium,100,100,1,Value,3.014814815,2.1209,Male,21,198
effortobserve,2349,32132,Value,7,High,270,270,1,Value,3.92345679,1.1883,Male,21,198
effortobserve,2349,32132,Value,8,Medium,100,100,1,Value,2.990123457,0.7053,Male,21,198
effortobserve,2349,32132,Value,9,Low,30,30,1,Value,2.061728395,0.6997,Male,21,198
effortobserve,2349,32132,Value,10,Medium,100,100,1,Value,2.545679012,3.7492,Male,21,198
effortobserve,2349,32132,Value,11,Low,30,30,1,Value,1.735802469,3.239,Male,21,198
effortobserve,2349,32132,Value,12,High,270,270,1,Value,4.6,2.0488,Male,21,198
effortobserve,2349,32132,Value,13,Medium,100,100,1,Value,3.128395062,3.9864,Male,21,198
effortobserve,2349,32132,Value,14,High,270,270,1,Value,4.486419753,1.3332,Male,21,198
effortobserve,2349,32132,Value,15,Low,30,30,1,Value,1.533333333,2.3571,Male,21,198
effortobserve,2349,32132,Value,16,High,270,270,1,Value,4.17037037,1.4448,Male,21,198
effortobserve,2349,32132,Value,17,Low,30,30,1,Value,1.503703704,0.804,Male,21,198
effortobserve,2349,32132,Value,18,Medium,100,100,1,Value,2.733333333,3.4868,Male,21,198
effortobserve,2349,32685,Value,1,Low,30,30,1,Value,3.021967593,6.5451,Female,20,219
effortobserve,2349,32685,Value,2,Medium,100,100,1,Value,1.000787037,4.6227,Female,20,219
effortobserve,2349,32685,Value,3,High,270,270,1,Value,2.669074074,6.8559,Female,20,219
effortobserve,2349,32685,Value,4,Low,30,30,1,Value,2.999930556,3.4823,Female,20,219
effortobserve,2349,32685,Value,5,High,270,270,1,Value,2.693055556,2.2923,Female,20,219
effortobserve,2349,32685,Value,6,Medium,100,100,1,Value,1.014467593,2.6786,Female,20,219
effortobserve,2349,32685,Value,7,High,270,270,1,Value,2.715648148,1.8728,Female,20,219
effortobserve,2349,32685,Value,8,Medium,100,100,1,Value,1.009212963,1.9775,Female,20,219
effortobserve,2349,32685,Value,9,Low,30,30,1,Value,2.987638889,1.8297,Female,20,219
effortobserve,2349,32685,Value,10,Medium,100,100,1,Value,1.03224537,1.8782,Female,20,219
effortobserve,2349,32685,Value,11,Low,30,30,1,Value,2.987337963,2.7075,Female,20,219
effortobserve,2349,32685,Value,12,High,270,270,1,Value,2.737569444,1.4791,Female,20,219
effortobserve,2349,32685,Value,13,Medium,100,100,1,Value,1.01625,1.1818,Female,20,219
effortobserve,2349,32685,Value,14,High,270,270,1,Value,2.732523148,2.7431,Female,20,219
effortobserve,2349,32685,Value,15,Low,30,30,1,Value,2.982592593,1.5785,Female,20,219
effortobserve,2349,32685,Value,16,High,270,270,1,Value,2.816828704,1.6406,Female,20,219
effortobserve,2349,32685,Value,17,Low,30,30,1,Value,3.010625,2.131,Female,20,219
effortobserve,2349,32685,Value,18,Medium,100,100,1,Value,1.00525463,3.9781,Female,20,219
effortobserve,2349,33035,Value,1,Low,30,30,1,Value,1.977777778,14.9585,Male,21,152
effortobserve,2349,33035,Value,2,Medium,100,100,1,Value,2.6,10.8108,Male,21,152
effortobserve,2349,33035,Value,3,High,270,270,1,Value,3.197530864,2.7051,Male,21,152
effortobserve,2349,33035,Value,4,Low,30,30,1,Value,1.958024691,1.4367,Male,21,152
effortobserve,2349,33035,Value,5,High,270,270,1,Value,2.362962963,7.6159,Male,21,152
effortobserve,2349,33035,Value,6,Medium,100,100,1,Value,1.641975309,3.2158,Male,21,152
effortobserve,2349,33035,Value,7,High,270,270,1,Value,2.081481481,5.9138,Male,21,152
effortobserve,2349,33035,Value,8,Medium,100,100,1,Value,2.609876543,3.1772,Male,21,152
effortobserve,2349,33035,Value,9,Low,30,30,1,Value,1.641975309,0.5753,Male,21,152
effortobserve,2349,33035,Value,10,Medium,100,100,1,Value,2.017283951,0.8245,Male,21,152
effortobserve,2349,33035,Value,11,Low,30,30,1,Value,1.548148148,1.7712,Male,21,152
effortobserve,2349,33035,Value,12,High,270,270,1,Value,2.792592593,1.7698,Male,21,152
effortobserve,2349,33035,Value,13,Medium,100,100,1,Value,2.674074074,1.8122,Male,21,152
effortobserve,2349,33035,Value,14,High,270,270,1,Value,2.585185185,0.8085,Male,21,152
effortobserve,2349,33035,Value,15,Low,30,30,1,Value,1.533333333,4.594,Male,21,152
effortobserve,2349,33035,Value,16,High,270,270,1,Value,2.402469136,2.7145,Male,21,152
effortobserve,2349,33035,Value,17,Low,30,30,1,Value,1.42962963,2.0546,Male,21,152
effortobserve,2349,33035,Value,18,Medium,100,100,1,Value,1.745679012,3.9847,Male,21,152
effortobserve,2349,33392,Value,1,Low,30,30,1,Value,1.021527778,3.2796,Female,20,103
effortobserve,2349,33392,Value,2,Medium,100,100,1,Value,1.570833333,2.0684,Female,20,103
effortobserve,2349,33392,Value,3,High,270,270,1,Value,1.996805556,2.2828,Female,20,103
effortobserve,2349,33392,Value,4,Low,30,30,1,Value,1.011828704,1.6548,Female,20,103
effortobserve,2349,33392,Value,5,High,270,270,1,Value,1.964930556,4.7114,Female,20,103
effortobserve,2349,33392,Value,6,Medium,100,100,1,Value,1.518981481,1.1124,Female,20,103
effortobserve,2349,33392,Value,7,High,270,270,1,Value,1.944884259,3.3261,Female,20,103
effortobserve,2349,33392,Value,8,Medium,100,100,1,Value,1.280347222,2.0867,Female,20,103
effortobserve,2349,33392,Value,9,Low,30,30,1,Value,1.011805556,1.1212,Female,20,103
effortobserve,2349,33392,Value,10,Medium,100,100,1,Value,1.523518519,1.4638,Female,20,103
effortobserve,2349,33392,Value,11,Low,30,30,1,Value,1.002847222,0.8834,Female,20,103
effortobserve,2349,33392,Value,12,High,270,270,1,Value,1.892962963,1.4227,Female,20,103
effortobserve,2349,33392,Value,13,Medium,100,100,1,Value,1.576921296,1.2955,Female,20,103
effortobserve,2349,33392,Value,14,High,270,270,1,Value,2.100231481,1.1272,Female,20,103
effortobserve,2349,33392,Value,15,Low,30,30,1,Value,1.002291667,1.6294,Female,20,103
effortobserve,2349,33392,Value,16,High,270,270,1,Value,1.990902778,2.1412,Female,20,103
effortobserve,2349,33392,Value,17,Low,30,30,1,Value,1.164398148,5.1416,Female,20,103
effortobserve,2349,33392,Value,18,Medium,100,100,1,Value,1.98650463,1.4978,Female,20,103
effortobserve,2349,33461,Liking,1,Low,30,30,1,Liking,2.977546296,6.7196,Female,21,113
effortobserve,2349,33461,Liking,2,Medium,100,100,1,Liking,3.977222222,1.8083,Female,21,113
effortobserve,2349,33461,Liking,3,High,270,270,1,Liking,3.962893519,2.6359,Female,21,113
effortobserve,2349,33461,Liking,4,Low,30,30,1,Liking,1,2.4453,Female,21,113
effortobserve,2349,33461,Liking,5,High,270,270,1,Liking,1.933449074,1.4262,Female,21,113
effortobserve,2349,33461,Liking,6,Medium,100,100,1,Liking,3.174861111,1.6563,Female,21,113
effortobserve,2349,33461,Liking,7,High,270,270,1,Liking,1.519212963,1.2241,Female,21,113
effortobserve,2349,33461,Liking,8,Medium,100,100,1,Liking,3.012847222,2.1803,Female,21,113
effortobserve,2349,33461,Liking,9,Low,30,30,1,Liking,3.479953704,1.3856,Female,21,113
effortobserve,2349,33461,Liking,10,Medium,100,100,1,Liking,3.029722222,0.6939,Female,21,113
effortobserve,2349,33461,Liking,11,Low,30,30,1,Liking,1.151342593,1.5416,Female,21,113
effortobserve,2349,33461,Liking,12,High,270,270,1,Liking,4.281689815,1.2235,Female,21,113
effortobserve,2349,33461,Liking,13,Medium,100,100,1,Liking,4.993564815,1.0321,Female,21,113
effortobserve,2349,33461,Liking,14,High,270,270,1,Liking,2.099212963,2.4378,Female,21,113
effortobserve,2349,33461,Liking,15,Low,30,30,1,Liking,3.237083333,1.1255,Female,21,113
effortobserve,2349,33461,Liking,16,High,270,270,1,Liking,4.405,1.9597,Female,21,113
effortobserve,2349,33461,Liking,17,Low,30,30,1,Liking,1.691597222,1.4865,Female,21,113
effortobserve,2349,33461,Liking,18,Medium,100,100,1,Liking,3.712407407,1.2025,Female,21,113
effortobserve,2349,33558,Liking,1,Low,30,30,1,Liking,3.316049458,4.4532,Male,21,251
effortobserve,2349,33558,Liking,2,Medium,100,100,1,Liking,1.849382942,3.6041,Male,21,251
effortobserve,2349,33558,Liking,3,High,270,270,1,Liking,4.614814664,0.8408,Male,21,251
effortobserve,2349,33558,Liking,4,Low,30,30,1,Liking,4.244444671,1.2674,Male,21,251
effortobserve,2349,33558,Liking,5,High,270,270,1,Liking,4.920988106,0.8518,Male,21,251
effortobserve,2349,33558,Liking,6,Medium,100,100,1,Liking,4.496296447,0.7865,Male,21,251
effortobserve,2349,33558,Liking,7,High,270,270,1,Liking,2.377777853,0.8798,Male,21,251
effortobserve,2349,33558,Liking,8,Medium,100,100,1,Liking,1.088888851,0.9482,Male,21,251
effortobserve,2349,33558,Liking,9,Low,30,30,1,Liking,1.237036999,1.6948,Male,21,251
effortobserve,2349,33558,Liking,10,Medium,100,100,1,Liking,3.320987654,0.5191,Male,21,251
effortobserve,2349,33558,Liking,11,Low,30,30,1,Liking,3.177777702,0.4878,Male,21,251
effortobserve,2349,33558,Liking,12,High,270,270,1,Liking,4.511111036,0.6271,Male,21,251
effortobserve,2349,33558,Liking,13,Medium,100,100,1,Liking,4.935802318,0.4998,Male,21,251
effortobserve,2349,33558,Liking,14,High,270,270,1,Liking,4.87654321,0.92490000000000006,Male,21,251
effortobserve,2349,33558,Liking,15,Low,30,30,1,Liking,2.422222373,1.4379,Male,21,251
effortobserve,2349,33558,Liking,16,High,270,270,1,Liking,2.728395062,0.6606,Male,21,251
effortobserve,2349,33558,Liking,17,Low,30,30,1,Liking,3.21234583,2.2017,Male,21,251
effortobserve,2349,33558,Liking,18,Medium,100,100,1,Liking,3.632098916,0.71,Male,21,251
effortobserve,2349,33954,Liking,1,Low,30,30,1,Liking,2.086419753,5.0306,Female,21,141
effortobserve,2349,33954,Liking,2,Medium,100,100,1,Liking,1.962962963,2.0821,Female,21,141
effortobserve,2349,33954,Liking,3,High,270,270,1,Liking,3.617283951,0.7885,Female,21,141
effortobserve,2349,33954,Liking,4,Low,30,30,1,Liking,2.274074225,1.6686,Female,21,141
effortobserve,2349,33954,Liking,5,High,270,270,1,Liking,4.491358251,0.6311,Female,21,141
effortobserve,2349,33954,Liking,6,Medium,100,100,1,Liking,1.261728357,1.1415,Female,21,141
effortobserve,2349,33954,Liking,7,High,270,270,1,Liking,1,1.6448,Female,21,141
effortobserve,2349,33954,Liking,8,Medium,100,100,1,Liking,1.730864348,1.8487,Female,21,141
effortobserve,2349,33954,Liking,9,Low,30,30,1,Liking,1.276543323,0.6058,Female,21,141
effortobserve,2349,33954,Liking,10,Medium,100,100,1,Liking,1.325926039,0.573,Female,21,141
effortobserve,2349,33954,Liking,11,Low,30,30,1,Liking,1.177777891,0.9132,Female,21,141
effortobserve,2349,33954,Liking,12,High,270,270,1,Liking,1.074074074,1.5469,Female,21,141
effortobserve,2349,33954,Liking,13,Medium,100,100,1,Liking,3.217284026,0.4956,Female,21,141
effortobserve,2349,33954,Liking,14,High,270,270,1,Liking,1.780247064,0.7428,Female,21,141
effortobserve,2349,33954,Liking,15,Low,30,30,1,Liking,1.903703854,0.5264,Female,21,141
effortobserve,2349,33954,Liking,16,High,270,270,1,Liking,2.841975459,0.4752,Female,21,141
effortobserve,2349,33954,Liking,17,Low,30,30,1,Liking,1.04444452,0.4828,Female,21,141
effortobserve,2349,33954,Liking,18,Medium,100,100,1,Liking,1.04444452,0.6597,Female,21,141
effortobserve,2349,33966,Liking,1,Low,30,30,1,Liking,3.005733507,4.7482,Female,21,203
effortobserve,2349,33966,Liking,2,Medium,100,100,1,Liking,3.465263672,2.1408,Female,21,203
effortobserve,2349,33966,Liking,3,High,270,270,1,Liking,1.860775825,0.8078,Female,21,203
effortobserve,2349,33966,Liking,4,Low,30,30,1,Liking,2.781634115,1.3915,Female,21,203
effortobserve,2349,33966,Liking,5,High,270,270,1,Liking,3.966291233,0.9912,Female,21,203
effortobserve,2349,33966,Liking,6,Medium,100,100,1,Liking,4.485480686,1.1734,Female,21,203
effortobserve,2349,33966,Liking,7,High,270,270,1,Liking,1.803607133,0.589,Female,21,203
effortobserve,2349,33966,Liking,8,Medium,100,100,1,Liking,2.931729962,1.3071,Female,21,203
effortobserve,2349,33966,Liking,9,Low,30,30,1,Liking,3.505530237,0.8417,Female,21,203
effortobserve,2349,33966,Liking,10,Medium,100,100,1,Liking,4.349168475,1.0903,Female,21,203
effortobserve,2349,33966,Liking,11,Low,30,30,1,Liking,4.958946759,1.2738,Female,21,203
effortobserve,2349,33966,Liking,12,High,270,270,1,Liking,3.921191406,0.7733,Female,21,203
effortobserve,2349,33966,Liking,13,Medium,100,100,1,Liking,3.526993996,0.6881,Female,21,203
effortobserve,2349,33966,Liking,14,High,270,270,1,Liking,4.983942419,0.7217,Female,21,203
effortobserve,2349,33966,Liking,15,Low,30,30,1,Liking,2.335562789,1.6242,Female,21,203
effortobserve,2349,33966,Liking,16,High,270,270,1,Liking,1.681752568,0.6569,Female,21,203
effortobserve,2349,33966,Liking,17,Low,30,30,1,Liking,4.966422888,0.7746,Female,21,203
effortobserve,2349,33966,Liking,18,Medium,100,100,1,Liking,3.454492911,0.7585,Female,21,203
effortobserve,2349,34331,Liking,1,Low,30,30,1,Liking,1.962962963,6.466,Female,21,161
effortobserve,2349,34331,Liking,2,Medium,100,100,1,Liking,1.962962963,2.573,Female,21,161
effortobserve,2349,34331,Liking,3,High,270,270,1,Liking,3.069135802,1.472,Female,21,161
effortobserve,2349,34331,Liking,4,Low,30,30,1,Liking,3.720987654,1.057,Female,21,161
effortobserve,2349,34331,Liking,5,High,270,270,1,Liking,3.409876543,1.088,Female,21,161
effortobserve,2349,34331,Liking,6,Medium,100,100,1,Liking,4.461728395,1.441,Female,21,161
effortobserve,2349,34331,Liking,7,High,270,270,1,Liking,3.024691358,1.106,Female,21,161
effortobserve,2349,34331,Liking,8,Medium,100,100,1,Liking,4.935802469,0.939,Female,21,161
effortobserve,2349,34331,Liking,9,Low,30,30,1,Liking,3.997530864,0.873,Female,21,161
effortobserve,2349,34331,Liking,10,Medium,100,100,1,Liking,3.666666667,1.742,Female,21,161
effortobserve,2349,34331,Liking,11,Low,30,30,1,Liking,4.362962963,1.954,Female,21,161
effortobserve,2349,34331,Liking,12,High,270,270,1,Liking,4.555555556,1.007,Female,21,161
effortobserve,2349,34331,Liking,13,Medium,100,100,1,Liking,4.279012346,0.923,Female,21,161
effortobserve,2349,34331,Liking,14,High,270,270,1,Liking,4.081481481,0.856,Female,21,161
effortobserve,2349,34331,Liking,15,Low,30,30,1,Liking,4.04691358,1.207,Female,21,161
effortobserve,2349,34331,Liking,16,High,270,270,1,Liking,3.222222222,1.073,Female,21,161
effortobserve,2349,34331,Liking,17,Low,30,30,1,Liking,4.97037037,1.072,Female,21,161
effortobserve,2349,34331,Liking,18,Medium,100,100,1,Liking,3.987654321,0.79,Female,21,161
effortobserve,2349,34396,Liking,1,Low,30,30,1,Liking,4.923101852,3.8124,Female,21,62
effortobserve,2349,34396,Liking,2,Medium,100,100,1,Liking,4.98375,4.3237,Female,21,62
effortobserve,2349,34396,Liking,3,High,270,270,1,Liking,2.875347222,3.8196,Female,21,62
effortobserve,2349,34396,Liking,4,Low,30,30,1,Liking,4.016365741,2.8745,Female,21,62
effortobserve,2349,34396,Liking,5,High,270,270,1,Liking,4.963935185,1.6239,Female,21,62
effortobserve,2349,34396,Liking,6,Medium,100,100,1,Liking,3.023634259,1.4262,Female,21,62
effortobserve,2349,34396,Liking,7,High,270,270,1,Liking,1.991782407,3.3817,Female,21,62
effortobserve,2349,34396,Liking,8,Medium,100,100,1,Liking,2.02599537,1.8231,Female,21,62
effortobserve,2349,34396,Liking,9,Low,30,30,1,Liking,3.971087963,2.888,Female,21,62
effortobserve,2349,34396,Liking,10,Medium,100,100,1,Liking,3.011388889,2.3079,Female,21,62
effortobserve,2349,34396,Liking,11,Low,30,30,1,Liking,1.665555556,4.7558,Female,21,62
effortobserve,2349,34396,Liking,12,High,270,270,1,Liking,3.592546296,1.859,Female,21,62
effortobserve,2349,34396,Liking,13,Medium,100,100,1,Liking,3.515717593,1.3401,Female,21,62
effortobserve,2349,34396,Liking,14,High,270,270,1,Liking,2.51525463,2.0737,Female,21,62
effortobserve,2349,34396,Liking,15,Low,30,30,1,Liking,1.281319444,0.9226,Female,21,62
effortobserve,2349,34396,Liking,16,High,270,270,1,Liking,1.754907407,1.4288,Female,21,62
effortobserve,2349,34396,Liking,17,Low,30,30,1,Liking,4.239467593,0.8186,Female,21,62
effortobserve,2349,34396,Liking,18,Medium,100,100,1,Liking,4.564328704,0.6862,Female,21,62
effortobserve,2349,34447,Value,1,Low,30,30,1,Value,1.006666667,7.6628,Female,20,166
effortobserve,2349,34447,Value,2,Medium,100,100,1,Value,1.116736111,4.8971,Female,20,166
effortobserve,2349,34447,Value,3,High,270,270,1,Value,2.724861111,2.3509,Female,20,166
effortobserve,2349,34447,Value,4,Low,30,30,1,Value,1.929467593,2.0319,Female,20,166
effortobserve,2349,34447,Value,5,High,270,270,1,Value,2.738587963,0.9649,Female,20,166
effortobserve,2349,34447,Value,6,Medium,100,100,1,Value,1.129236111,1.962,Female,20,166
effortobserve,2349,34447,Value,7,High,270,270,1,Value,1.085277778,5.316,Female,20,166
effortobserve,2349,34447,Value,8,Medium,100,100,1,Value,1.754097222,2.3646,Female,20,166
effortobserve,2349,34447,Value,9,Low,30,30,1,Value,2.99625,2.0489,Female,20,166
effortobserve,2349,34447,Value,10,Medium,100,30,0,Value,1.161527778,0.8396,Female,20,166
effortobserve,2349,34447,Value,11,Low,30,30,1,Value,3.297847222,0.5654,Female,20,166
effortobserve,2349,34447,Value,12,High,270,270,1,Value,2.360763889,1.6614,Female,20,166
effortobserve,2349,34447,Value,13,Medium,100,100,1,Value,2.496782407,1.7846,Female,20,166
effortobserve,2349,34447,Value,14,High,270,270,1,Value,2.538449074,1.2624,Female,20,166
effortobserve,2349,34447,Value,15,Low,30,30,1,Value,2.671041667,1.7606,Female,20,166
effortobserve,2349,34447,Value,16,High,270,270,1,Value,2.724074074,1.2406,Female,20,166
effortobserve,2349,34447,Value,17,Low,30,30,1,Value,2.795208333,1.3242,Female,20,166
effortobserve,2349,34447,Value,18,Medium,100,100,1,Value,2.52525463,1.5141,Female,20,166
effortobserve,2349,34564,Value,1,Low,30,30,1,Value,1,3.5022,Female,21,135
effortobserve,2349,34564,Value,2,Medium,100,100,1,Value,1.005414472,4.4863,Female,21,135
effortobserve,2349,34564,Value,3,High,270,270,1,Value,2.775378375,1.8385,Female,21,135
effortobserve,2349,34564,Value,4,Low,30,30,1,Value,1,2.5555,Female,21,135
effortobserve,2349,34564,Value,5,High,270,270,1,Value,2.338169256,2.3329,Female,21,135
effortobserve,2349,34564,Value,6,Medium,100,100,1,Value,1,6.1822,Female,21,135
effortobserve,2349,34564,Value,7,High,270,270,1,Value,2.768991597,1.4306,Female,21,135
effortobserve,2349,34564,Value,8,Medium,100,100,1,Value,1.031516569,1.9793,Female,21,135
effortobserve,2349,34564,Value,9,Low,30,30,1,Value,1.028878651,2.1253,Female,21,135
effortobserve,2349,34564,Value,10,Medium,100,100,1,Value,1.00504432,3.5805,Female,21,135
effortobserve,2349,34564,Value,11,Low,30,30,1,Value,1.03894449,1.2565,Female,21,135
effortobserve,2349,34564,Value,12,High,270,270,1,Value,2.678861123,2.2418,Female,21,135
effortobserve,2349,34564,Value,13,Medium,100,100,1,Value,1.002313661,1.602,Female,21,135
effortobserve,2349,34564,Value,14,High,270,270,1,Value,2.646557567,2.1439,Female,21,135
effortobserve,2349,34564,Value,15,Low,30,100,0,Value,1.040980892,2.7906,Female,21,135
effortobserve,2349,34564,Value,16,High,270,270,1,Value,2.721045362,3.8892,Female,21,135
effortobserve,2349,34564,Value,17,Low,30,30,1,Value,1,3.6582,Female,21,135
effortobserve,2349,34564,Value,18,Medium,100,100,1,Value,1.033668654,2.3754,Female,21,135
effortobserve,2349,34750,Value,1,Low,30,30,1,Value,1,5.6226,Female,21,52
effortobserve,2349,34750,Value,2,Medium,100,100,1,Value,1.202469136,1.8584,Female,21,52
effortobserve,2349,34750,Value,3,High,270,270,1,Value,1.365432099,4.3438,Female,21,52
effortobserve,2349,34750,Value,4,Low,30,30,1,Value,1,3.7557,Female,21,52
effortobserve,2349,34750,Value,5,High,270,270,1,Value,1.162962963,1.2887,Female,21,52
effortobserve,2349,34750,Value,6,Medium,100,100,1,Value,1.009876543,2.3455,Female,21,52
effortobserve,2349,34750,Value,7,High,270,270,1,Value,1.207407407,4.648,Female,21,52
effortobserve,2349,34750,Value,8,Medium,100,100,1,Value,1,2.2912,Female,21,52
effortobserve,2349,34750,Value,9,Low,30,30,1,Value,1.528395062,0.6668,Female,21,52
effortobserve,2349,34750,Value,10,Medium,100,100,1,Value,1.162962963,0.9271,Female,21,52
effortobserve,2349,34750,Value,11,Low,30,30,1,Value,1.039506173,0.5613,Female,21,52
effortobserve,2349,34750,Value,12,High,270,270,1,Value,1.419753086,0.6166,Female,21,52
effortobserve,2349,34750,Value,13,Medium,100,100,1,Value,1.286419753,0.9907,Female,21,52
effortobserve,2349,34750,Value,14,High,270,270,1,Value,1.735802469,1.6359,Female,21,52
effortobserve,2349,34750,Value,15,Low,30,30,1,Value,1,1.452,Female,21,52
effortobserve,2349,34750,Value,16,High,270,270,1,Value,1.138271605,0.6835,Female,21,52
effortobserve,2349,34750,Value,17,Low,30,30,1,Value,1.039506173,0.5619,Female,21,52
effortobserve,2349,34750,Value,18,Medium,100,100,1,Value,1.009876543,1.5163,Female,21,52
effortobserve,2349,34819,Value,1,Low,30,30,1,Value,1,9.57,Female,20,140
effortobserve,2349,34819,Value,2,Medium,100,100,1,Value,1.08,6.047,Female,20,140
effortobserve,2349,34819,Value,3,High,270,270,1,Value,1.068148148,7.395,Female,20,140
effortobserve,2349,34819,Value,4,Low,30,30,1,Value,1.002962963,1.346,Female,20,140
effortobserve,2349,34819,Value,5,High,270,270,1,Value,1.056296296,1.825,Female,20,140
effortobserve,2349,34819,Value,6,Medium,100,100,1,Value,1.625185185,1.247,Female,20,140
effortobserve,2349,34819,Value,7,High,270,270,1,Value,1.162962963,1.507,Female,20,140
effortobserve,2349,34819,Value,8,Medium,100,100,1,Value,1.737777778,1.726,Female,20,140
effortobserve,2349,34819,Value,9,Low,30,30,1,Value,1.026666667,3.412,Female,20,140
effortobserve,2349,34819,Value,10,Medium,100,100,1,Value,1.008888889,1.524,Female,20,140
effortobserve,2349,34819,Value,11,Low,30,30,1,Value,2.06962963,2.063,Female,20,140
effortobserve,2349,34819,Value,12,High,270,270,1,Value,1.216296296,2.394,Female,20,140
effortobserve,2349,34819,Value,13,Medium,100,100,1,Value,2.063703704,1.613,Female,20,140
effortobserve,2349,34819,Value,14,High,270,270,1,Value,1.8088888890000001,1.544,Female,20,140
effortobserve,2349,34819,Value,15,Low,30,30,1,Value,1.613333333,1.806,Female,20,140
effortobserve,2349,34819,Value,16,High,270,270,1,Value,2.028148148,0.889,Female,20,140
effortobserve,2349,34819,Value,17,Low,30,30,1,Value,1.002962963,2.274,Female,20,140
effortobserve,2349,34819,Value,18,Medium,100,100,1,Value,1.334814815,1.158,Female,20,140
effortobserve,2349,34951,Value,1,Low,30,30,1,Value,3.000181568,7.0909,Female,20,40
effortobserve,2349,34951,Value,2,Medium,100,100,1,Value,1.026335901,1.8657,Female,20,40
effortobserve,2349,34951,Value,3,High,270,270,1,Value,2.793157552,1.2977,Female,20,40
effortobserve,2349,34951,Value,4,Low,30,30,1,Value,1.041052698,1.5288,Female,20,40
effortobserve,2349,34951,Value,5,High,270,270,1,Value,2.828668258,0.679,Female,20,40
effortobserve,2349,34951,Value,6,Medium,100,100,1,Value,1.011496672,2.0024,Female,20,40
effortobserve,2349,34951,Value,7,High,270,270,1,Value,2.819979022,1.4782,Female,20,40
effortobserve,2349,34951,Value,8,Medium,100,100,1,Value,1.012981409,1.2467,Female,20,40
effortobserve,2349,34951,Value,9,Low,30,30,1,Value,1.010370732,1.9118,Female,20,40
effortobserve,2349,34951,Value,10,Medium,100,100,1,Value,1.005947989,0.9289,Female,20,40
effortobserve,2349,34951,Value,11,Low,30,30,1,Value,1.073766638,1.0825,Female,20,40
effortobserve,2349,34951,Value,12,High,270,270,1,Value,2.764097946,3.94,Female,20,40
effortobserve,2349,34951,Value,13,Medium,100,100,1,Value,1.019076244,1.5117,Female,20,40
effortobserve,2349,34951,Value,14,High,270,270,1,Value,2.811044198,1.3483,Female,20,40
effortobserve,2349,34951,Value,15,Low,30,30,1,Value,1.067730396,1.2617,Female,20,40
effortobserve,2349,34951,Value,16,High,270,270,1,Value,2.788595197,1.4828,Female,20,40
effortobserve,2349,34951,Value,17,Low,30,30,1,Value,1.049632523,1.6319,Female,20,40
effortobserve,2349,34951,Value,18,Medium,100,100,1,Value,1.057430917,1.614,Female,20,40
effortobserve,2349,34958,Liking,1,Low,30,30,1,Liking,1.957037037,3.668,Female,21,100
effortobserve,2349,34958,Liking,2,Medium,100,100,1,Liking,3.011851852,3.046,Female,21,100
effortobserve,2349,34958,Liking,3,High,270,270,1,Liking,1.986666667,2.602,Female,21,100
effortobserve,2349,34958,Liking,4,Low,30,30,1,Liking,4.007407407,1.119,Female,21,100
effortobserve,2349,34958,Liking,5,High,270,270,1,Liking,2.976296296,1.761,Female,21,100
effortobserve,2349,34958,Liking,6,Medium,100,100,1,Liking,4.997037037,1.283,Female,21,100
effortobserve,2349,34958,Liking,7,High,270,270,1,Liking,4.054814815,0.79,Female,21,100
effortobserve,2349,34958,Liking,8,Medium,100,100,1,Liking,4.025185185,2.281,Female,21,100
effortobserve,2349,34958,Liking,9,Low,30,30,1,Liking,4.031111111,0.932,Female,21,100
effortobserve,2349,34958,Liking,10,Medium,100,100,1,Liking,3.995555556,0.867,Female,21,100
effortobserve,2349,34958,Liking,11,Low,30,30,1,Liking,4.991111111,1.816,Female,21,100
effortobserve,2349,34958,Liking,12,High,270,270,1,Liking,1.998518519,2.184,Female,21,100
effortobserve,2349,34958,Liking,13,Medium,100,100,1,Liking,2.01037037,2.12,Female,21,100
effortobserve,2349,34958,Liking,14,High,270,270,1,Liking,4.937777778,2.197,Female,21,100
effortobserve,2349,34958,Liking,15,Low,30,30,1,Liking,4.031111111,2.082,Female,21,100
effortobserve,2349,34958,Liking,16,High,270,270,1,Liking,4.955555556,1.665,Female,21,100
effortobserve,2349,34958,Liking,17,Low,30,30,1,Liking,3.977777778,1.479,Female,21,100
effortobserve,2349,34958,Liking,18,Medium,100,100,1,Liking,4.001481481,1.815,Female,21,100
effortobserve,2349,35271,Value,1,Low,30,30,1,Value,2.997962963,9.6375,Female,20,119
effortobserve,2349,35271,Value,2,Medium,100,100,1,Value,3.981851852,4.9299,Female,20,119
effortobserve,2349,35271,Value,3,High,270,270,1,Value,4.434236111,1.5144,Female,20,119
effortobserve,2349,35271,Value,4,Low,30,30,1,Value,1.969768519,1.311,Female,20,119
effortobserve,2349,35271,Value,5,High,270,270,1,Value,4.471296296,1.1729,Female,20,119
effortobserve,2349,35271,Value,6,Medium,100,100,1,Value,3.008564815,1.4372,Female,20,119
effortobserve,2349,35271,Value,7,High,270,270,1,Value,2.670231481,2.2577,Female,20,119
effortobserve,2349,35271,Value,8,Medium,100,100,1,Value,2.270925926,0.6279,Female,20,119
effortobserve,2349,35271,Value,9,Low,30,30,1,Value,2.416921296,1.6027,Female,20,119
effortobserve,2349,35271,Value,10,Medium,100,100,1,Value,2.536782407,1.262,Female,20,119
effortobserve,2349,35271,Value,11,Low,30,30,1,Value,4.153726852,0.904,Female,20,119
effortobserve,2349,35271,Value,12,High,270,270,1,Value,3.681064815,2.7251,Female,20,119
effortobserve,2349,35271,Value,13,Medium,100,100,1,Value,3.912685185,0.8541,Female,20,119
effortobserve,2349,35271,Value,14,High,270,270,1,Value,4.345717593,0.7451,Female,20,119
effortobserve,2349,35271,Value,15,Low,30,30,1,Value,1.023958333,0.6747,Female,20,119
effortobserve,2349,35271,Value,16,High,270,270,1,Value,3.196064815,0.7027,Female,20,119
effortobserve,2349,35271,Value,17,Low,30,30,1,Value,2.603217593,0.5801,Female,20,119
effortobserve,2349,35271,Value,18,Medium,100,100,1,Value,1.768981481,1.2303,Female,20,119
effortobserve,2349,35879,Liking,1,Low,30,30,1,Liking,2.998619792,8.7507,Other,19,141
effortobserve,2349,35879,Liking,2,Medium,100,100,1,Liking,2.998125,4.0187,Other,19,141
effortobserve,2349,35879,Liking,3,High,270,270,1,Liking,2.980208333,1.9443,Other,19,141
effortobserve,2349,35879,Liking,4,Low,30,30,1,Liking,3.976744792,3.0882,Other,19,141
effortobserve,2349,35879,Liking,5,High,270,270,1,Liking,2.04265625,1.9317,Other,19,141
effortobserve,2349,35879,Liking,6,Medium,100,100,1,Liking,1.890390625,1.633,Other,19,141
effortobserve,2349,35879,Liking,7,High,270,270,1,Liking,3.151223958,2.3594,Other,19,141
effortobserve,2349,35879,Liking,8,Medium,100,100,1,Liking,2.880885417,1.6353,Other,19,141
effortobserve,2349,35879,Liking,9,Low,30,30,1,Liking,1.392161458,0.6465,Other,19,141
effortobserve,2349,35879,Liking,10,Medium,100,100,1,Liking,3.766380208,2.8693,Other,19,141
effortobserve,2349,35879,Liking,11,Low,30,30,1,Liking,3.300182292,1.257,Other,19,141
effortobserve,2349,35879,Liking,12,High,270,270,1,Liking,3.60625,3.4951,Other,19,141
effortobserve,2349,35879,Liking,13,Medium,100,100,1,Liking,3.143229167,2.8742,Other,19,141
effortobserve,2349,35879,Liking,14,High,270,270,1,Liking,2.729869792,1.1273,Other,19,141
effortobserve,2349,35879,Liking,15,Low,30,30,1,Liking,1.714088542,0.8013,Other,19,141
effortobserve,2349,35879,Liking,16,High,270,270,1,Liking,4.6953125,0.8171,Other,19,141
effortobserve,2349,35879,Liking,17,Low,30,30,1,Liking,2.758515625,0.5832,Other,19,141
effortobserve,2349,35879,Liking,18,Medium,100,100,1,Liking,3.321848958,0.6173,Other,19,141
effortobserve,2349,36207,Value,1,Low,30,30,1,Value,1.115555556,3.069,Female,19,152
effortobserve,2349,36207,Value,2,Medium,100,100,1,Value,1.565925926,2.708,Female,19,152
effortobserve,2349,36207,Value,3,High,270,270,1,Value,2.004444444,3.564,Female,19,152
effortobserve,2349,36207,Value,4,Low,30,30,1,Value,1.121481481,2.48,Female,19,152
effortobserve,2349,36207,Value,5,High,270,270,1,Value,2.38962963,2.18,Female,19,152
effortobserve,2349,36207,Value,6,Medium,100,100,1,Value,1.702222222,2.296,Female,19,152
effortobserve,2349,36207,Value,7,High,270,270,1,Value,2.099259259,2.363,Female,19,152
effortobserve,2349,36207,Value,8,Medium,100,100,1,Value,1.571851852,1.978,Female,19,152
effortobserve,2349,36207,Value,9,Low,30,30,1,Value,1.068148148,0.712,Female,19,152
effortobserve,2349,36207,Value,10,Medium,100,100,1,Value,1.613333333,1.546,Female,19,152
effortobserve,2349,36207,Value,11,Low,30,30,1,Value,1.115555556,1.197,Female,19,152
effortobserve,2349,36207,Value,12,High,270,270,1,Value,2.851851852,0.847,Female,19,152
effortobserve,2349,36207,Value,13,Medium,100,100,1,Value,2.715555556,1.129,Female,19,152
effortobserve,2349,36207,Value,14,High,270,270,1,Value,4.066666667,1.213,Female,19,152
effortobserve,2349,36207,Value,15,Low,30,30,1,Value,1.056296296,1.764,Female,19,152
effortobserve,2349,36207,Value,16,High,270,270,1,Value,2.946666667,1.779,Female,19,152
effortobserve,2349,36207,Value,17,Low,30,30,1,Value,1.074074074,2.346,Female,19,152
effortobserve,2349,36207,Value,18,Medium,100,100,1,Value,2.573333333,1.497,Female,19,152
effortobserve,2349,36223,Value,1,Low,30,30,1,Value,3.065041474,8.1163,Female,23,266
effortobserve,2349,36223,Value,2,Medium,100,100,1,Value,3.020326666,5.4008,Female,23,266
effortobserve,2349,36223,Value,3,High,270,270,1,Value,4.026332827,0.9414,Female,23,266
effortobserve,2349,36223,Value,4,Low,30,100,0,Value,3.985862751,2.9521,Female,23,266
effortobserve,2349,36223,Value,5,High,270,270,1,Value,4.058840905,2.7421,Female,23,266
effortobserve,2349,36223,Value,6,Medium,100,100,1,Value,2.974630474,6.3491,Female,23,266
effortobserve,2349,36223,Value,7,High,270,270,1,Value,1.997915762,8.4172,Female,23,266
effortobserve,2349,36223,Value,8,Medium,100,100,1,Value,1.027197868,3.8325,Female,23,266
effortobserve,2349,36223,Value,9,Low,30,30,1,Value,1.088759886,2.0072,Female,23,266
effortobserve,2349,36223,Value,10,Medium,100,100,1,Value,2.137978033,1.4011,Female,23,266
effortobserve,2349,36223,Value,11,Low,30,30,1,Value,1.09502345,0.709,Female,23,266
effortobserve,2349,36223,Value,12,High,270,270,1,Value,3.449872203,3.0326,Female,23,266
effortobserve,2349,36223,Value,13,Medium,100,100,1,Value,2.012938549,2.5431,Female,23,266
effortobserve,2349,36223,Value,14,High,270,270,1,Value,4.187890625,1.2671,Female,23,266
effortobserve,2349,36223,Value,15,Low,30,30,1,Value,1.058050612,1.8409,Female,23,266
effortobserve,2349,36223,Value,16,High,270,270,1,Value,3.168174913,4.3676,Female,23,266
effortobserve,2349,36223,Value,17,Low,30,30,1,Value,1.129778827,2.1409,Female,23,266
effortobserve,2349,36223,Value,18,Medium,100,100,1,Value,2.068667716,1.2212,Female,23,266
effortobserve,2349,36396,Value,1,Low,30,30,1,Value,1.019468316,4.0108,Female,20,265
effortobserve,2349,36396,Value,2,Medium,100,100,1,Value,1.543037471,1.42,Female,20,265
effortobserve,2349,36396,Value,3,High,270,270,1,Value,1.668968099,1.0764,Female,20,265
effortobserve,2349,36396,Value,4,Low,30,30,1,Value,1.039032841,1.0239,Female,20,265
effortobserve,2349,36396,Value,5,High,270,270,1,Value,2.004992043,0.6416,Female,20,265
effortobserve,2349,36396,Value,6,Medium,100,100,1,Value,2.33411169,0.7547,Female,20,265
effortobserve,2349,36396,Value,7,High,270,270,1,Value,2.890613788,0.7908,Female,20,265
effortobserve,2349,36396,Value,8,Medium,100,100,1,Value,2.586807002,0.6868,Female,20,265
effortobserve,2349,36396,Value,9,Low,30,30,1,Value,1.585754123,2.1932,Female,20,265
effortobserve,2349,36396,Value,10,Medium,100,100,1,Value,2.341360677,0.7429,Female,20,265
effortobserve,2349,36396,Value,11,Low,30,30,1,Value,2.326567564,1.9217,Female,20,265
effortobserve,2349,36396,Value,12,High,270,270,1,Value,3.234070095,1.606,Female,20,265
effortobserve,2349,36396,Value,13,Medium,100,100,1,Value,1.890938947,0.7096,Female,20,265
effortobserve,2349,36396,Value,14,High,270,270,1,Value,2.299162688,2.3234,Female,20,265
effortobserve,2349,36396,Value,15,Low,30,30,1,Value,1.011288339,0.8611,Female,20,265
effortobserve,2349,36396,Value,16,High,270,270,1,Value,2.608255932,0.4871,Female,20,265
effortobserve,2349,36396,Value,17,Low,30,30,1,Value,2.11768627,0.5895,Female,20,265
effortobserve,2349,36396,Value,18,Medium,100,100,1,Value,1.997309028,0.5924,Female,20,265
effortobserve,2349,36599,Value,1,Low,30,30,1,Value,1.025925926,4.1469,Male,22,162
effortobserve,2349,36599,Value,2,Medium,100,100,1,Value,1.985185185,3.1365,Male,22,162
effortobserve,2349,36599,Value,3,High,270,270,1,Value,2.988888889,1.6306,Male,22,162
effortobserve,2349,36599,Value,4,Low,30,30,1,Value,1,0.8218,Male,22,162
effortobserve,2349,36599,Value,5,High,270,270,1,Value,2.940740741,2.143,Male,22,162
effortobserve,2349,36599,Value,6,Medium,100,100,1,Value,2.088888889,0.9634,Male,22,162
effortobserve,2349,36599,Value,7,High,270,270,1,Value,2.988888889,1.5993,Male,22,162
effortobserve,2349,36599,Value,8,Medium,100,100,1,Value,1.996296296,0.9219,Male,22,162
effortobserve,2349,36599,Value,9,Low,30,30,1,Value,1,1.2855,Male,22,162
effortobserve,2349,36599,Value,10,Medium,100,100,1,Value,2.014814815,2.0023,Male,22,162
effortobserve,2349,36599,Value,11,Low,30,30,1,Value,1,2.169,Male,22,162
effortobserve,2349,36599,Value,12,High,270,270,1,Value,2.292592593,3.7684,Male,22,162
effortobserve,2349,36599,Value,13,Medium,100,100,1,Value,2,2.8326,Male,22,162
effortobserve,2349,36599,Value,14,High,270,270,1,Value,2.688888889,1.435,Male,22,162
effortobserve,2349,36599,Value,15,Low,30,30,1,Value,1,4.121,Male,22,162
effortobserve,2349,36599,Value,16,High,270,270,1,Value,2.755555556,1.2341,Male,22,162
effortobserve,2349,36599,Value,17,Low,30,30,1,Value,1,2.5149,Male,22,162
effortobserve,2349,36599,Value,18,Medium,100,100,1,Value,2.007407407,0.8496,Male,22,162
effortobserve,2349,37398,Value,1,Low,30,30,1,Value,3.004938196,7.5196,Male,21,93
effortobserve,2349,37398,Value,2,Medium,100,100,1,Value,3.039506324,3.2841,Male,21,93
effortobserve,2349,37398,Value,3,High,270,270,1,Value,4.007407483,1.2834,Male,21,93
effortobserve,2349,37398,Value,4,Low,30,30,1,Value,3.99753109,1.5928,Male,21,93
effortobserve,2349,37398,Value,5,High,270,270,1,Value,4.940740891,1.5793,Male,21,93
effortobserve,2349,37398,Value,6,Medium,100,100,1,Value,4.012345679,2.1324,Male,21,93
effortobserve,2349,37398,Value,7,High,270,270,1,Value,4.980247215,1.6885,Male,21,93
effortobserve,2349,37398,Value,8,Medium,100,100,1,Value,3.029629554,0.8707,Male,21,93
effortobserve,2349,37398,Value,9,Low,30,30,1,Value,1.977777928,0.9023,Male,21,93
effortobserve,2349,37398,Value,10,Medium,100,100,1,Value,2.600000075,5.8719,Male,21,93
effortobserve,2349,37398,Value,11,Low,30,30,1,Value,1.241975384,2.0369,Male,21,93
effortobserve,2349,37398,Value,12,High,270,270,1,Value,4.437036962,3.4356,Male,21,93
effortobserve,2349,37398,Value,13,Medium,100,100,1,Value,2.659259184,2.7584,Male,21,93
effortobserve,2349,37398,Value,14,High,270,270,1,Value,4.545679163,1.1065,Male,21,93
effortobserve,2349,37398,Value,15,Low,30,30,1,Value,1.158024729,2.0668,Male,21,93
effortobserve,2349,37398,Value,16,High,270,270,1,Value,2.669135953,4.012,Male,21,93
effortobserve,2349,37398,Value,17,Low,30,30,1,Value,1.49382716,4.8148,Male,21,93
effortobserve,2349,37398,Value,18,Medium,100,100,1,Value,2.713580473,3.7906,Male,21,93
effortobserve,2349,37805,Liking,1,Low,30,30,1,Liking,4.973768446,3.1092,Female,22,102
effortobserve,2349,37805,Liking,2,Medium,100,100,1,Liking,4.921115451,2.8405,Female,22,102
effortobserve,2349,37805,Liking,3,High,270,270,1,Liking,1.021267361,2.0517,Female,22,102
effortobserve,2349,37805,Liking,4,Low,30,30,1,Liking,3.952880859,1.9185,Female,22,102
effortobserve,2349,37805,Liking,5,High,270,270,1,Liking,3.975992839,1.5006,Female,22,102
effortobserve,2349,37805,Liking,6,Medium,100,100,1,Liking,2.053765191,1.4671,Female,22,102
effortobserve,2349,37805,Liking,7,High,270,270,1,Liking,1.021701389,1.0417,Female,22,102
effortobserve,2349,37805,Liking,8,Medium,100,100,1,Liking,2.991780599,0.7314,Female,22,102
effortobserve,2349,37805,Liking,9,Low,30,30,1,Liking,2.016764323,0.7053,Female,22,102
effortobserve,2349,37805,Liking,10,Medium,100,100,1,Liking,1.889648438,1.6508,Female,22,102
effortobserve,2349,37805,Liking,11,Low,30,30,1,Liking,1.748453776,0.7506,Female,22,102
effortobserve,2349,37805,Liking,12,High,270,270,1,Liking,1.703152127,1.2832,Female,22,102
effortobserve,2349,37805,Liking,13,Medium,100,100,1,Liking,3.2523328990000002,0.9387,Female,22,102
effortobserve,2349,37805,Liking,14,High,270,270,1,Liking,2.9816352,1.6245,Female,22,102
effortobserve,2349,37805,Liking,15,Low,30,30,1,Liking,1.748372396,0.6206,Female,22,102
effortobserve,2349,37805,Liking,16,High,270,270,1,Liking,2.13140191,1.4164,Female,22,102
effortobserve,2349,37805,Liking,17,Low,30,30,1,Liking,2.206407335,0.6584,Female,22,102
effortobserve,2349,37805,Liking,18,Medium,100,100,1,Liking,2.256673177,0.9163,Female,22,102
effortobserve,2349,37812,Value,1,Low,30,30,1,Value,1,5.0076,Male,24,52
effortobserve,2349,37812,Value,2,Medium,100,100,1,Value,2.994496044,6.6106,Male,24,52
effortobserve,2349,37812,Value,3,High,270,270,1,Value,4.007223942,0.6719,Male,24,52
effortobserve,2349,37812,Value,4,Low,30,30,1,Value,1,2.6546,Male,24,52
effortobserve,2349,37812,Value,5,High,270,270,1,Value,2.735810114,4.9249,Male,24,52
effortobserve,2349,37812,Value,6,Medium,100,100,1,Value,1.029583763,1.3659,Male,24,52
effortobserve,2349,37812,Value,7,High,270,270,1,Value,2.796353629,0.946,Male,24,52
effortobserve,2349,37812,Value,8,Medium,100,100,1,Value,1.046095631,2.1445,Male,24,52
effortobserve,2349,37812,Value,9,Low,30,30,1,Value,1,1.1476,Male,24,52
effortobserve,2349,37812,Value,10,Medium,100,100,1,Value,2.97248022,1.501,Male,24,52
effortobserve,2349,37812,Value,11,Low,30,30,1,Value,1,1.8441,Male,24,52
effortobserve,2349,37812,Value,12,High,270,270,1,Value,3.842105263,0.5376,Male,24,52
effortobserve,2349,37812,Value,13,Medium,100,100,1,Value,2.042311662,1.4123000000000001,Male,24,52
effortobserve,2349,37812,Value,14,High,270,270,1,Value,4.271413829,2.1978,Male,24,52
effortobserve,2349,37812,Value,15,Low,30,30,1,Value,1.040591675,1.4527,Male,24,52
effortobserve,2349,37812,Value,16,High,270,270,1,Value,4.425524596,0.8829,Male,24,52
effortobserve,2349,37812,Value,17,Low,30,30,1,Value,1,1.6538,Male,24,52
effortobserve,2349,37812,Value,18,Medium,100,100,1,Value,2.812865497,0.4832,Male,24,52
effortobserve,2349,37954,Liking,1,Low,30,30,1,Liking,1.967901385,3.0693,Female,20,193
effortobserve,2349,37954,Liking,2,Medium,100,100,1,Liking,2.975308793,1.8026,Female,20,193
effortobserve,2349,37954,Liking,3,High,270,270,1,Liking,1.824691433,1.3588,Female,20,193
effortobserve,2349,37954,Liking,4,Low,30,30,1,Liking,3.093827311,1.6034,Female,20,193
effortobserve,2349,37954,Liking,5,High,270,270,1,Liking,3.483950919,1.6182,Female,20,193
effortobserve,2349,37954,Liking,6,Medium,100,100,1,Liking,2.377777778,0.9386,Female,20,193
effortobserve,2349,37954,Liking,7,High,270,270,1,Liking,3.098765734,4.1183,Female,20,193
effortobserve,2349,37954,Liking,8,Medium,100,100,1,Liking,3.138271756,7.5502,Female,20,193
effortobserve,2349,37954,Liking,9,Low,30,30,1,Liking,1.55308657,1.9565,Female,20,193
effortobserve,2349,37954,Liking,10,Medium,100,100,1,Liking,3.143210178,6.9282,Female,20,193
effortobserve,2349,37954,Liking,11,Low,30,30,1,Liking,2.313580548,1.0192,Female,20,193
effortobserve,2349,37954,Liking,12,High,270,270,1,Liking,3.123456941,3.4592,Female,20,193
effortobserve,2349,37954,Liking,13,Medium,100,100,1,Liking,2.496296296,1.2561,Female,20,193
effortobserve,2349,37954,Liking,14,High,270,270,1,Liking,3.691358326,1.5871,Female,20,193
effortobserve,2349,37954,Liking,15,Low,30,30,1,Liking,2.846913882,1.1762,Female,20,193
effortobserve,2349,37954,Liking,16,High,270,270,1,Liking,3.079012496,1.0741,Female,20,193
effortobserve,2349,37954,Liking,17,Low,30,270,0,Liking,4.288888889,1.86,Female,20,193
effortobserve,2349,37954,Liking,18,Medium,100,100,1,Liking,2.664197682,2.5579,Female,20,193
effortobserve,2349,38056,Liking,1,Low,30,30,1,Liking,3.001119792,6.8547,Female,19,52
effortobserve,2349,38056,Liking,2,Medium,100,100,1,Liking,2.986484375,2.1313,Female,19,52
effortobserve,2349,38056,Liking,3,High,270,270,1,Liking,3.988229167,0.9569,Female,19,52
effortobserve,2349,38056,Liking,4,Low,30,30,1,Liking,3.966692708,1.111,Female,19,52
effortobserve,2349,38056,Liking,5,High,270,270,1,Liking,3.017291667,0.9676,Female,19,52
effortobserve,2349,38056,Liking,6,Medium,100,100,1,Liking,3.978489583,2.3185,Female,19,52
effortobserve,2349,38056,Liking,7,High,270,270,1,Liking,4.061796875,0.7592,Female,19,52
effortobserve,2349,38056,Liking,8,Medium,100,100,1,Liking,3.954348958,1.4643,Female,19,52
effortobserve,2349,38056,Liking,9,Low,30,30,1,Liking,2.955651042,0.725,Female,19,52
effortobserve,2349,38056,Liking,10,Medium,100,100,1,Liking,2.020963542,0.6859,Female,19,52
effortobserve,2349,38056,Liking,11,Low,30,30,1,Liking,3.036614583,2.797,Female,19,52
effortobserve,2349,38056,Liking,12,High,270,270,1,Liking,2.025130208,0.7349,Female,19,52
effortobserve,2349,38056,Liking,13,Medium,100,100,1,Liking,2.828020833,1.1259,Female,19,52
effortobserve,2349,38056,Liking,14,High,270,270,1,Liking,2.368333333,0.9472,Female,19,52
effortobserve,2349,38056,Liking,15,Low,30,30,1,Liking,1.851276042,2.1787,Female,19,52
effortobserve,2349,38056,Liking,16,High,270,270,1,Liking,3.077447917,1.5515,Female,19,52
effortobserve,2349,38056,Liking,17,Low,30,30,1,Liking,3.224791667,1.1162,Female,19,52
effortobserve,2349,38056,Liking,18,Medium,100,100,1,Liking,4.305989583,1.0004,Female,19,52
effortobserve,2349,38401,Value,1,Low,30,30,1,Value,2.006875,4.3356,Female,20,146
effortobserve,2349,38401,Value,2,Medium,100,100,1,Value,3.034976852,2.27,Female,20,146
effortobserve,2349,38401,Value,3,High,270,270,1,Value,4.988055556,1.7078,Female,20,146
effortobserve,2349,38401,Value,4,Low,30,30,1,Value,1.011967593,3.9094,Female,20,146
effortobserve,2349,38401,Value,5,High,270,270,1,Value,4.955648148,1.2425,Female,20,146
effortobserve,2349,38401,Value,6,Medium,100,100,1,Value,2.965578704,1.9376,Female,20,146
effortobserve,2349,38401,Value,7,High,270,270,1,Value,3.971111111,2.3864,Female,20,146
effortobserve,2349,38401,Value,8,Medium,100,100,1,Value,3.016805556,1.6201,Female,20,146
effortobserve,2349,38401,Value,9,Low,30,100,0,Value,3.955740741,1.7443,Female,20,146
effortobserve,2349,38401,Value,10,Medium,100,100,1,Value,3.010416667,0.9543,Female,20,146
effortobserve,2349,38401,Value,11,Low,30,30,1,Value,2.941851852,2.389,Female,20,146
effortobserve,2349,38401,Value,12,High,270,270,1,Value,2.991967593,3.1043,Female,20,146
effortobserve,2349,38401,Value,13,Medium,100,100,1,Value,1.039884259,4.7728,Female,20,146
effortobserve,2349,38401,Value,14,High,270,270,1,Value,4.004837963,4.1708,Female,20,146
effortobserve,2349,38401,Value,15,Low,30,30,1,Value,1.949907407,3.1079,Female,20,146
effortobserve,2349,38401,Value,16,High,270,270,1,Value,2.969722222,4.199,Female,20,146
effortobserve,2349,38401,Value,17,Low,30,30,1,Value,4.064722222,2.0715,Female,20,146
effortobserve,2349,38401,Value,18,Medium,100,100,1,Value,3.047777778,1.8398,Female,20,146
effortobserve,2349,38437,Liking,1,Low,30,30,1,Liking,2.007629018,5.3797,Female,22,104
effortobserve,2349,38437,Liking,2,Medium,100,100,1,Liking,4.005103971,2.6253,Female,22,104
effortobserve,2349,38437,Liking,3,High,270,270,1,Liking,1.941833119,2.276,Female,22,104
effortobserve,2349,38437,Liking,4,Low,30,30,1,Liking,2.964605261,2.4813,Female,22,104
effortobserve,2349,38437,Liking,5,High,270,270,1,Liking,3.943722949,3.1762,Female,22,104
effortobserve,2349,38437,Liking,6,Medium,100,100,1,Liking,3.952717722,2.3473,Female,22,104
effortobserve,2349,38437,Liking,7,High,270,270,1,Liking,2.014920835,4.1064,Female,22,104
effortobserve,2349,38437,Liking,8,Medium,100,100,1,Liking,1.922516623,2.913,Female,22,104
effortobserve,2349,38437,Liking,9,Low,30,30,1,Liking,2.98782311,3.4694,Female,22,104
effortobserve,2349,38437,Liking,10,Medium,100,100,1,Liking,4.993006577,1.4997,Female,22,104
effortobserve,2349,38437,Liking,11,Low,30,30,1,Liking,3.044950132,1.8112,Female,22,104
effortobserve,2349,38437,Liking,12,High,270,270,1,Liking,4.003096592,2.7645,Female,22,104
effortobserve,2349,38437,Liking,13,Medium,100,100,1,Liking,3.004293183,1.4223,Female,22,104
effortobserve,2349,38437,Liking,14,High,270,270,1,Liking,1.996903408,1.2118,Female,22,104
effortobserve,2349,38437,Liking,15,Low,30,30,1,Liking,1.9339415,1.5677,Female,22,104
effortobserve,2349,38437,Liking,16,High,270,270,1,Liking,1.018133093,1.2118,Female,22,104
effortobserve,2349,38437,Liking,17,Low,30,30,1,Liking,4.083230478,1.0527,Female,22,104
effortobserve,2349,38437,Liking,18,Medium,100,100,1,Liking,2.984260088,1.3725,Female,22,104
effortobserve,2349,38505,Liking,1,Low,30,30,1,Liking,2.995061728,4.4988,Male,21,142
effortobserve,2349,38505,Liking,2,Medium,100,100,1,Liking,3.395061728,4.4639,Male,21,142
effortobserve,2349,38505,Liking,3,High,270,270,1,Liking,2.945679012,2.6768,Male,21,142
effortobserve,2349,38505,Liking,4,Low,30,30,1,Liking,1.814814815,3.1582,Male,21,142
effortobserve,2349,38505,Liking,5,High,270,270,1,Liking,3.740740741,1.0749,Male,21,142
effortobserve,2349,38505,Liking,6,Medium,100,100,1,Liking,3.760493827,0.558,Male,21,142
effortobserve,2349,38505,Liking,7,High,270,270,1,Liking,2.437037037,0.5189,Male,21,142
effortobserve,2349,38505,Liking,8,Medium,100,100,1,Liking,3.750617284,0.4612,Male,21,142
effortobserve,2349,38505,Liking,9,Low,30,30,1,Liking,1.938271605,0.6405,Male,21,142
effortobserve,2349,38505,Liking,10,Medium,100,100,1,Liking,2.451851852,0.5057,Male,21,142
effortobserve,2349,38505,Liking,11,Low,30,30,1,Liking,3.335802469,0.4416,Male,21,142
effortobserve,2349,38505,Liking,12,High,270,270,1,Liking,2.511111111,0.5431,Male,21,142
effortobserve,2349,38505,Liking,13,Medium,100,100,1,Liking,2.792592593,0.187,Male,21,142
effortobserve,2349,38505,Liking,14,High,270,270,1,Liking,4.04691358,0.0444,Male,21,142
effortobserve,2349,38505,Liking,15,Low,30,30,1,Liking,4.101234568,0.394,Male,21,142
effortobserve,2349,38505,Liking,16,High,270,270,1,Liking,2.387654321,0.9401,Male,21,142
effortobserve,2349,38505,Liking,17,Low,30,30,1,Liking,2.718518519,0.3583,Male,21,142
effortobserve,2349,38505,Liking,18,Medium,100,100,1,Liking,4.249382716,0.241,Male,21,142
effortobserve,2349,38629,Value,1,Low,30,30,1,Value,1.987654321,6.5785,Male,22,136
effortobserve,2349,38629,Value,2,Medium,100,100,1,Value,2.985185411,2.5194,Male,22,136
effortobserve,2349,38629,Value,3,High,270,270,1,Value,4.002469287,2.3512,Male,22,136
effortobserve,2349,38629,Value,4,Low,30,30,1,Value,1.014814777,2.8531,Male,22,136
effortobserve,2349,38629,Value,5,High,270,270,1,Value,3.962962963,1.6339,Male,22,136
effortobserve,2349,38629,Value,6,Medium,100,100,1,Value,2.975308642,4.7925,Male,22,136
effortobserve,2349,38629,Value,7,High,270,270,1,Value,4.032098841,1.8342,Male,22,136
effortobserve,2349,38629,Value,8,Medium,100,100,1,Value,3.004938196,5.1013,Male,22,136
effortobserve,2349,38629,Value,9,Low,30,30,1,Value,1.039506135,5.1857,Male,22,136
effortobserve,2349,38629,Value,10,Medium,100,100,1,Value,4.017283875,2.5591,Male,22,136
effortobserve,2349,38629,Value,11,Low,30,30,1,Value,2.965432249,2.1689,Male,22,136
effortobserve,2349,38629,Value,12,High,270,30,0,Value,3.933333409,3.1213,Male,22,136
effortobserve,2349,38629,Value,13,Medium,100,100,1,Value,1.967901159,3.3807,Male,22,136
effortobserve,2349,38629,Value,14,High,270,270,1,Value,3.064197682,5.2204,Male,22,136
effortobserve,2349,38629,Value,15,Low,30,30,1,Value,1.972839732,1.6524,Male,22,136
effortobserve,2349,38629,Value,16,High,270,270,1,Value,2.056790199,1.8562,Male,22,136
effortobserve,2349,38629,Value,17,Low,30,270,0,Value,1.972839732,4.5315,Male,22,136
effortobserve,2349,38629,Value,18,Medium,100,100,1,Value,2.674074149,6.6596,Male,22,136
effortobserve,2349,38798,Liking,1,Low,30,30,1,Liking,3.511695906,9.1147,Male,20,266
effortobserve,2349,38798,Value,1,Low,30,30,1,Value,3.076023392,6.0668,Male,20,266
effortobserve,2349,38798,Value,1,Low,30,30,1,Value,4.31871345,0.7419,Male,20,266
effortobserve,2349,38798,Liking,2,Medium,100,100,1,Liking,1.608187135,5.0779,Male,20,266
effortobserve,2349,38798,Value,2,Medium,100,100,1,Value,4.941520468,1.4482,Male,20,266
effortobserve,2349,38798,Value,2,Medium,100,100,1,Value,3.839181287,0.4666,Male,20,266
effortobserve,2349,38798,Liking,3,High,270,270,1,Liking,2.447368421,4.8581,Male,20,266
effortobserve,2349,38798,Value,3,High,270,270,1,Value,3.213450292,2.8309,Male,20,266
effortobserve,2349,38798,Value,3,High,270,270,1,Value,3.64619883,1.0377,Male,20,266
effortobserve,2349,38798,Liking,4,Low,30,30,1,Liking,4.502923977,5.4635,Male,20,266
effortobserve,2349,38798,Value,4,Low,30,30,1,Value,3.602339181,1.2898,Male,20,266
effortobserve,2349,38798,Value,4,Low,30,30,1,Value,3.722222222,1.1241,Male,20,266
effortobserve,2349,38798,Liking,5,High,270,30,0,Liking,4.473684211,3.7156,Male,20,266
effortobserve,2349,38798,Value,5,High,270,270,1,Value,2.567251462,0.8744,Male,20,266
effortobserve,2349,38798,Value,5,High,270,100,0,Value,4.228070175,0.4677,Male,20,266
effortobserve,2349,38798,Liking,6,Medium,100,100,1,Liking,3.026315789,1.2576,Male,20,266
effortobserve,2349,38798,Value,6,Medium,100,100,1,Value,2.260233918,0.9853,Male,20,266
effortobserve,2349,38798,Value,6,Medium,100,100,1,Value,2.374269006,0.5248,Male,20,266
effortobserve,2349,38894,Value,1,Low,30,30,1,Value,1.026666667,6.205,Female,22,255
effortobserve,2349,38894,Value,2,Medium,100,100,1,Value,3.026666667,2.778,Female,22,255
effortobserve,2349,38894,Value,3,High,270,270,1,Value,3.013333333,1.811,Female,22,255
effortobserve,2349,38894,Value,4,Low,30,30,1,Value,2.26,1.845,Female,22,255
effortobserve,2349,38894,Value,5,High,270,270,1,Value,2.7,1.794,Female,22,255
effortobserve,2349,38894,Value,6,Medium,100,100,1,Value,2.826666667,1.944,Female,22,255
effortobserve,2349,38894,Value,7,High,270,270,1,Value,2.786666667,2.895,Female,22,255
effortobserve,2349,38894,Value,8,Medium,100,100,1,Value,1.026666667,1.211,Female,22,255
effortobserve,2349,38894,Value,9,Low,30,30,1,Value,1.053333333,1.345,Female,22,255
effortobserve,2349,38894,Value,10,Medium,100,100,1,Value,1.733333333,1.011,Female,22,255
effortobserve,2349,38894,Value,11,Low,30,30,1,Value,2.64,0.776,Female,22,255
effortobserve,2349,38894,Value,12,High,270,270,1,Value,3.453333333,1.071,Female,22,255
effortobserve,2349,38894,Value,13,Medium,100,100,1,Value,3.566666667,1.277,Female,22,255
effortobserve,2349,38894,Value,14,High,270,270,1,Value,3.093333333,1.278,Female,22,255
effortobserve,2349,38894,Value,15,Low,30,30,1,Value,3.2,1.51,Female,22,255
effortobserve,2349,38894,Value,16,High,270,270,1,Value,3.966666667,3.964,Female,22,255
effortobserve,2349,38894,Value,17,Low,30,30,1,Value,2.833333333,0.758,Female,22,255
effortobserve,2349,38894,Value,18,Medium,100,100,1,Value,3.373333333,1.694,Female,22,255
effortobserve,2349,38897,Liking,1,Low,30,30,1,Liking,1.516049533,2.8921,Male,21,208
effortobserve,2349,38897,Liking,2,Medium,100,100,1,Liking,1.46172847,1.7886,Male,21,208
effortobserve,2349,38897,Liking,3,High,270,270,1,Liking,4,1.2063,Male,21,208
effortobserve,2349,38897,Liking,4,Low,30,30,1,Liking,1.427160645,1.3406,Male,21,208
effortobserve,2349,38897,Liking,5,High,270,270,1,Liking,1.069135878,1.1318,Male,21,208
effortobserve,2349,38897,Liking,6,Medium,100,100,1,Liking,3.377777778,1.1698,Male,21,208
effortobserve,2349,38897,Liking,7,High,270,270,1,Liking,1.019753237,1.6204,Male,21,208
effortobserve,2349,38897,Liking,8,Medium,100,100,1,Liking,3.004938422,0.8499,Male,21,208
effortobserve,2349,38897,Liking,9,Low,30,30,1,Liking,1.9827162,2.3887,Male,21,208
effortobserve,2349,38897,Liking,10,Medium,100,100,1,Liking,2.417284252,0.7696,Male,21,208
effortobserve,2349,38897,Liking,11,Low,30,30,1,Liking,3.767901385,0.8198,Male,21,208
effortobserve,2349,38897,Liking,12,High,270,270,1,Liking,2.123456941,0.6195,Male,21,208
effortobserve,2349,38897,Liking,13,Medium,100,100,1,Liking,2.9827162,1.0955,Male,21,208
effortobserve,2349,38897,Liking,14,High,270,270,1,Liking,2.990123607,0.6184,Male,21,208
effortobserve,2349,38897,Liking,15,Low,30,30,1,Liking,2.251851852,1.4445,Male,21,208
effortobserve,2349,38897,Liking,16,High,270,270,1,Liking,3.975308793,0.675,Male,21,208
effortobserve,2349,38897,Liking,17,Low,30,30,1,Liking,1,0.995,Male,21,208
effortobserve,2349,38897,Liking,18,Medium,100,100,1,Liking,3.97037037,0.8062,Male,21,208
effortobserve,2349,38908,Liking,1,Low,30,30,1,Liking,2.30650463,4.3474,Male,22,151
effortobserve,2349,38908,Liking,2,Medium,100,100,1,Liking,1.754560185,2.2536,Male,22,151
effortobserve,2349,38908,Liking,3,High,270,270,1,Liking,1.120625,0.7177,Male,22,151
effortobserve,2349,38908,Liking,4,Low,30,30,1,Liking,4.144583333,0.7029,Male,22,151
effortobserve,2349,38908,Liking,5,High,270,270,1,Liking,1.199189815,0.7142,Male,22,151
effortobserve,2349,38908,Liking,6,Medium,100,100,1,Liking,1.833287037,2.6868,Male,22,151
effortobserve,2349,38908,Liking,7,High,270,270,1,Liking,1.634537037,5.3978,Male,22,151
effortobserve,2349,38908,Liking,8,Medium,100,100,1,Liking,1.98875,1.4193,Male,22,151
effortobserve,2349,38908,Liking,9,Low,30,30,1,Liking,1.316203704,0.5693,Male,22,151
effortobserve,2349,38908,Liking,10,Medium,100,100,1,Liking,1.129259259,0.6967,Male,22,151
effortobserve,2349,38908,Liking,11,Low,30,30,1,Liking,1.12662037,0.6784,Male,22,151
effortobserve,2349,38908,Liking,12,High,270,270,1,Liking,1.752615741,0.4867,Male,22,151
effortobserve,2349,38908,Liking,13,Medium,100,100,1,Liking,1.846875,1.0361,Male,22,151
effortobserve,2349,38908,Liking,14,High,270,270,1,Liking,2.004907407,0.8568,Male,22,151
effortobserve,2349,38908,Liking,15,Low,30,30,1,Liking,2.781296296,1.0512,Male,22,151
effortobserve,2349,38908,Liking,16,High,270,270,1,Liking,2.313310185,1.41,Male,22,151
effortobserve,2349,38908,Liking,17,Low,30,30,1,Liking,2.882800926,1.4536,Male,22,151
effortobserve,2349,38908,Liking,18,Medium,100,100,1,Liking,1.659259259,4.6846,Male,22,151
effortobserve,2349,39486,Liking,1,Low,30,30,1,Liking,2.013125,3.5469,Female,20,172
effortobserve,2349,39486,Liking,2,Medium,100,100,1,Liking,3.067476852,1.6445,Female,20,172
effortobserve,2349,39486,Liking,3,High,270,270,1,Liking,3.993587963,1.5791,Female,20,172
effortobserve,2349,39486,Liking,4,Low,30,30,1,Liking,3.033726852,1.0877,Female,20,172
effortobserve,2349,39486,Liking,5,High,270,270,1,Liking,3.004768519,1.7142,Female,20,172
effortobserve,2349,39486,Liking,6,Medium,100,100,1,Liking,3.978217593,1.0354,Female,20,172
effortobserve,2349,39486,Liking,7,High,270,270,1,Liking,4.99474537,0.6144,Female,20,172
effortobserve,2349,39486,Liking,8,Medium,100,100,1,Liking,3.04849537,1.1947,Female,20,172
effortobserve,2349,39486,Liking,9,Low,30,30,1,Liking,4.938634259,0.7381,Female,20,172
effortobserve,2349,39486,Liking,10,Medium,100,100,1,Liking,3.998402778,0.9428,Female,20,172
effortobserve,2349,39486,Liking,11,Low,30,30,1,Liking,2.004282407,1.7549,Female,20,172
effortobserve,2349,39486,Liking,12,High,270,270,1,Liking,3.079560185,1.336,Female,20,172
effortobserve,2349,39486,Liking,13,Medium,100,100,1,Liking,4.964861111,0.7105,Female,20,172
effortobserve,2349,39486,Liking,14,High,270,270,1,Liking,4.059490741,0.6292,Female,20,172
effortobserve,2349,39486,Liking,15,Low,30,30,1,Liking,3.029305556,0.4928,Female,20,172
effortobserve,2349,39486,Liking,16,High,270,270,1,Liking,3.934606481,0.6256,Female,20,172
effortobserve,2349,39486,Liking,17,Low,30,30,1,Liking,3.971435185,1.1247,Female,20,172
effortobserve,2349,39486,Liking,18,Medium,100,100,1,Liking,4.12787037,0.6399,Female,20,172
effortobserve,2349,40546,Value,1,Low,30,30,1,Value,1.00712963,4.6358,Female,19,218
effortobserve,2349,40546,Value,2,Medium,100,100,1,Value,2.000324074,2.4746,Female,19,218
effortobserve,2349,40546,Value,3,High,270,270,1,Value,1.945833333,2.351,Female,19,218
effortobserve,2349,40546,Value,4,Low,30,30,1,Value,2.964490741,1.2876,Female,19,218
effortobserve,2349,40546,Value,5,High,270,270,1,Value,1.022847222,3.8751,Female,19,218
effortobserve,2349,40546,Value,6,Medium,100,100,1,Value,2.056319444,2.4866,Female,19,218
effortobserve,2349,40546,Value,7,High,270,100,0,Value,3.008611111,2.8061,Female,19,218
effortobserve,2349,40546,Value,8,Medium,100,100,1,Value,2.991944444,1.3374,Female,19,218
effortobserve,2349,40546,Value,9,Low,30,30,1,Value,1.117939815,1.8717,Female,19,218
effortobserve,2349,40546,Value,10,Medium,100,100,1,Value,1.667523148,4.8883,Female,19,218
effortobserve,2349,40546,Value,11,Low,30,30,1,Value,1.042731481,1.2513,Female,19,218
effortobserve,2349,40546,Value,12,High,270,30,0,Value,2.32537037,2.8703,Female,19,218
effortobserve,2349,40546,Value,13,Medium,100,100,1,Value,3.564768519,4.7368,Female,19,218
effortobserve,2349,40546,Value,14,High,270,270,1,Value,4.357361111,5.3136,Female,19,218
effortobserve,2349,40546,Value,15,Low,30,30,1,Value,1.43587963,2.9377,Female,19,218
effortobserve,2349,40546,Value,16,High,270,270,1,Value,4.229351852,4.0593,Female,19,218
effortobserve,2349,40546,Value,17,Low,30,30,1,Value,1.27462963,5.5623,Female,19,218
effortobserve,2349,40546,Value,18,Medium,100,100,1,Value,2.037152778,3.3728,Female,19,218
effortobserve,2349,40699,Value,1,Low,30,30,1,Value,1.036837203,7.334,Female,27,104
effortobserve,2349,40699,Value,2,Medium,100,100,1,Value,1.542514468,4.6005,Female,27,104
effortobserve,2349,40699,Value,3,High,270,270,1,Value,2.213062789,3.1493,Female,27,104
effortobserve,2349,40699,Value,4,Low,30,30,1,Value,1.023017578,1.4206,Female,27,104
effortobserve,2349,40699,Value,5,High,270,270,1,Value,2.189714265,3.7865,Female,27,104
effortobserve,2349,40699,Value,6,Medium,100,100,1,Value,1.36429796,2.5217,Female,27,104
effortobserve,2349,40699,Value,7,High,270,270,1,Value,2.373528646,3.5126,Female,27,104
effortobserve,2349,40699,Value,8,Medium,100,100,1,Value,1.224725477,1.2214,Female,27,104
effortobserve,2349,40699,Value,9,Low,30,30,1,Value,1.031756727,0.9891,Female,27,104
effortobserve,2349,40699,Value,10,Medium,100,100,1,Value,1.32508572,3.3262,Female,27,104
effortobserve,2349,40699,Value,11,Low,30,30,1,Value,1.063604782,0.841,Female,27,104
effortobserve,2349,40699,Value,12,High,270,270,1,Value,3.020444517,1.4222,Female,27,104
effortobserve,2349,40699,Value,13,Medium,100,100,1,Value,2.745913267,3.1399,Female,27,104
effortobserve,2349,40699,Value,14,High,270,270,1,Value,3.212594401,1.2533,Female,27,104
effortobserve,2349,40699,Value,15,Low,30,100,0,Value,1.250373806,2.309,Female,27,104
effortobserve,2349,40699,Value,16,High,270,270,1,Value,2.946740451,1.9405,Female,27,104
effortobserve,2349,40699,Value,17,Low,30,30,1,Value,1.996636285,7.7111,Female,27,104
effortobserve,2349,40699,Value,18,Medium,100,100,1,Value,3.596134259,1.7914,Female,27,104
effortobserve,2349,40750,Value,1,Low,30,30,1,Value,1.010416667,6.025,Female,18,354
effortobserve,2349,40750,Value,2,Medium,100,100,1,Value,1.979166667,6.891,Female,18,354
effortobserve,2349,40750,Value,3,High,270,270,1,Value,2.96875,1.4781,Female,18,354
effortobserve,2349,40750,Value,4,Low,30,30,1,Value,4.020833333,4.5243,Female,18,354
effortobserve,2349,40750,Value,5,High,270,270,1,Value,4.947916667,1.9287,Female,18,354
effortobserve,2349,40750,Value,6,Medium,100,100,1,Value,1.130208333,1.0691,Female,18,354
effortobserve,2349,40750,Value,7,High,270,270,1,Value,2.953125,1.1189,Female,18,354
effortobserve,2349,40750,Value,8,Medium,100,100,1,Value,1.942708333,0.9865,Female,18,354
effortobserve,2349,40750,Value,9,Low,30,30,1,Value,2.973958333,1.0723,Female,18,354
effortobserve,2349,40750,Value,10,Medium,100,100,1,Value,3.96875,11.8382,Female,18,354
effortobserve,2349,40750,Value,11,Low,30,30,1,Value,2.010416667,1.9625,Female,18,354
effortobserve,2349,40750,Value,12,High,270,270,1,Value,4.03125,12.74,Female,18,354
effortobserve,2349,40750,Value,13,Medium,100,100,1,Value,4.958333333,2.9718,Female,18,354
effortobserve,2349,40750,Value,14,High,270,270,1,Value,4.046875,2.6228,Female,18,354
effortobserve,2349,40750,Value,15,Low,30,30,1,Value,2.098958333,3.6374,Female,18,354
effortobserve,2349,40750,Value,16,High,270,270,1,Value,2.973958333,1.4373,Female,18,354
effortobserve,2349,40750,Value,17,Low,30,30,1,Value,3.026041667,2.5413,Female,18,354
effortobserve,2349,40750,Value,18,Medium,100,100,1,Value,4.010416667,6.607,Female,18,354
effortobserve,2349,40752,Value,1,Low,30,30,1,Value,1.011967617,4.801,Male,19,140
effortobserve,2349,40752,Value,2,Medium,100,100,1,Value,1.986272439,3.324,Male,19,140
effortobserve,2349,40752,Value,3,High,270,270,1,Value,4.852868708,1.36,Male,19,140
effortobserve,2349,40752,Value,4,Low,30,30,1,Value,4.982400563,1.505,Male,19,140
effortobserve,2349,40752,Value,5,High,270,270,1,Value,4.475536783,2.448,Male,19,140
effortobserve,2349,40752,Value,6,Medium,100,100,1,Value,3.157690954,1.656,Male,19,140
effortobserve,2349,40752,Value,7,High,270,270,1,Value,4.80781415,1.11,Male,19,140
effortobserve,2349,40752,Value,8,Medium,100,100,1,Value,2.448081661,2.009,Male,19,140
effortobserve,2349,40752,Value,9,Low,30,30,1,Value,2.138331573,1.024,Male,19,140
effortobserve,2349,40752,Value,10,Medium,100,100,1,Value,2.205913411,1.018,Male,19,140
effortobserve,2349,40752,Value,11,Low,30,30,1,Value,4.993664203,0.866,Male,19,140
effortobserve,2349,40752,Value,12,High,270,270,1,Value,3.01126364,0.654,Male,19,140
effortobserve,2349,40752,Value,13,Medium,100,100,1,Value,3.022527279,1.024,Male,19,140
effortobserve,2349,40752,Value,14,High,270,270,1,Value,1.299190426,2.174,Male,19,140
effortobserve,2349,40752,Value,15,Low,30,30,1,Value,1.000703977,3.124,Male,19,140
effortobserve,2349,40752,Value,16,High,270,270,1,Value,4.01935938,5.847,Male,19,140
effortobserve,2349,40752,Value,17,Low,30,30,1,Value,3.022527279,1.397,Male,19,140
effortobserve,2349,40752,Value,18,Medium,100,100,1,Value,2.859204505,1.82,Male,19,140
effortobserve,2349,41029,Value,1,Low,30,30,1,Value,2.008098958,4.5749,Female,20,99
effortobserve,2349,41029,Value,2,Medium,100,100,1,Value,3.03359375,2.2492,Female,20,99
effortobserve,2349,41029,Value,3,High,270,270,1,Value,3.997447917,2.3979,Female,20,99
effortobserve,2349,41029,Value,4,Low,30,30,1,Value,1.306640625,1.1049,Female,20,99
effortobserve,2349,41029,Value,5,High,270,270,1,Value,3.891692708,2.8399,Female,20,99
effortobserve,2349,41029,Value,6,Medium,100,100,1,Value,2.841848958,1.497,Female,20,99
effortobserve,2349,41029,Value,7,High,270,270,1,Value,3.846015625,0.8488,Female,20,99
effortobserve,2349,41029,Value,8,Medium,100,100,1,Value,2.8428125,1.3369,Female,20,99
effortobserve,2349,41029,Value,9,Low,30,30,1,Value,1.2459375,0.8279,Female,20,99
effortobserve,2349,41029,Value,10,Medium,100,100,1,Value,2.915703125,2.6031,Female,20,99
effortobserve,2349,41029,Value,11,Low,30,30,1,Value,1.459166667,1.1434,Female,20,99
effortobserve,2349,41029,Value,12,High,270,270,1,Value,3.74203125,1.1039,Female,20,99
effortobserve,2349,41029,Value,13,Medium,100,100,1,Value,3.038203125,0.9346,Female,20,99
effortobserve,2349,41029,Value,14,High,270,270,1,Value,4.000494792,0.9029,Female,20,99
effortobserve,2349,41029,Value,15,Low,30,30,1,Value,1.53390625,1.4131,Female,20,99
effortobserve,2349,41029,Value,16,High,270,270,1,Value,4.067552083,0.8226,Female,20,99
effortobserve,2349,41029,Value,17,Low,30,30,1,Value,1.224635417,1.8404,Female,20,99
effortobserve,2349,41029,Value,18,Medium,100,30,0,Value,2.0334375,2.4666,Female,20,99
effortobserve,2349,41051,Liking,1,Low,30,30,1,Liking,3.010949074,5.1804,Male,19,359
effortobserve,2349,41051,Liking,2,Medium,100,100,1,Liking,4.064421296,3.1722,Male,19,359
effortobserve,2349,41051,Liking,3,High,270,270,1,Liking,3.965601852,1.2394,Male,19,359
effortobserve,2349,41051,Liking,4,Low,30,30,1,Liking,2.018703704,1.894,Male,19,359
effortobserve,2349,41051,Liking,5,High,270,270,1,Liking,3.994421296,1.2034,Male,19,359
effortobserve,2349,41051,Liking,6,Medium,100,100,1,Liking,3.980972222,1.2931,Male,19,359
effortobserve,2349,41051,Liking,7,High,270,270,1,Liking,2.987361111,0.8721,Male,19,359
effortobserve,2349,41051,Liking,8,Medium,100,100,1,Liking,4.044768519,1.588,Male,19,359
effortobserve,2349,41051,Liking,9,Low,30,30,1,Liking,3.081597222,1.447,Male,19,359
effortobserve,2349,41051,Liking,10,Medium,100,100,1,Liking,1.274282407,0.9691,Male,19,359
effortobserve,2349,41051,Liking,11,Low,30,30,1,Liking,3.00337963,1.4577,Male,19,359
effortobserve,2349,41051,Liking,12,High,270,270,1,Liking,1.972615741,1.306,Male,19,359
effortobserve,2349,41051,Liking,13,Medium,100,100,1,Liking,3.063634259,1.426,Male,19,359
effortobserve,2349,41051,Liking,14,High,270,270,1,Liking,3.076689815,5.7342,Male,19,359
effortobserve,2349,41051,Liking,15,Low,30,30,1,Liking,3.522013889,1.6888,Male,19,359
effortobserve,2349,41051,Liking,16,High,270,270,1,Liking,1.454421296,1.0582,Male,19,359
effortobserve,2349,41051,Liking,17,Low,30,30,1,Liking,3.724050926,1.6861,Male,19,359
effortobserve,2349,41051,Liking,18,Medium,100,100,1,Liking,3.961481481,1.7928,Male,19,359
effortobserve,2349,41490,Value,1,Low,30,30,1,Value,1.004497354,8.2986,Female,19,104
effortobserve,2349,41490,Value,2,Medium,100,100,1,Value,2.025132275,1.3416,Female,19,104
effortobserve,2349,41490,Value,3,High,270,270,1,Value,2.069532628,2.6685,Female,19,104
effortobserve,2349,41490,Value,4,Low,30,30,1,Value,1.017063492,4.017,Female,19,104
effortobserve,2349,41490,Value,5,High,270,270,1,Value,1.980246914,0.8798,Female,19,104
effortobserve,2349,41490,Value,6,Medium,100,100,1,Value,2.977226631,1.3829,Female,19,104
effortobserve,2349,41490,Value,7,High,270,270,1,Value,1.907495591,0.6359,Female,19,104
effortobserve,2349,41490,Value,8,Medium,100,100,1,Value,1.83452381,3.8859,Female,19,104
effortobserve,2349,41490,Value,9,Low,30,30,1,Value,1.351300705,1.1438,Female,19,104
effortobserve,2349,41490,Value,10,Medium,100,100,1,Value,1.162676367,0.8167,Female,19,104
effortobserve,2349,41490,Value,11,Low,30,30,1,Value,1.05063933,1.1874,Female,19,104
effortobserve,2349,41490,Value,12,High,270,270,1,Value,2.001212522,0.8886,Female,19,104
effortobserve,2349,41490,Value,13,Medium,100,100,1,Value,2.220723104,0.6933,Female,19,104
effortobserve,2349,41490,Value,14,High,270,270,1,Value,1.081657848,0.7781,Female,19,104
effortobserve,2349,41490,Value,15,Low,30,30,1,Value,1.473567019,0.5856,Female,19,104
effortobserve,2349,41490,Value,16,High,270,270,1,Value,1.479585538,0.7683,Female,19,104
effortobserve,2349,41490,Value,17,Low,30,30,1,Value,1.827513228,0.7203,Female,19,104
effortobserve,2349,41490,Value,18,Medium,100,100,1,Value,2.075132275,0.6035,Female,19,104
effortobserve,2349,41534,Liking,1,Low,30,30,1,Liking,2.972060185,3.8959,Male,19,94
effortobserve,2349,41534,Liking,2,Medium,100,100,1,Liking,2.985763889,1.7513,Male,19,94
effortobserve,2349,41534,Liking,3,High,270,270,1,Liking,2.097986111,1.0221,Male,19,94
effortobserve,2349,41534,Liking,4,Low,30,30,1,Liking,2.977430556,0.7207,Male,19,94
effortobserve,2349,41534,Liking,5,High,270,270,1,Liking,3.659606481,1.2545,Male,19,94
effortobserve,2349,41534,Liking,6,Medium,100,100,1,Liking,3.007546296,0.6028,Male,19,94
effortobserve,2349,41534,Liking,7,High,270,270,1,Liking,3.032916667,1.6839,Male,19,94
effortobserve,2349,41534,Liking,8,Medium,100,100,1,Liking,3.071944444,0.7049,Male,19,94
effortobserve,2349,41534,Liking,9,Low,30,30,1,Liking,3.035324074,0.8051,Male,19,94
effortobserve,2349,41534,Liking,10,Medium,100,100,1,Liking,2.956041667,0.6873,Male,19,94
effortobserve,2349,41534,Liking,11,Low,30,30,1,Liking,2.858564815,0.9698,Male,19,94
effortobserve,2349,41534,Liking,12,High,270,270,1,Liking,3.079930556,1.7045,Male,19,94
effortobserve,2349,41534,Liking,13,Medium,100,100,1,Liking,2.953611111,1.554,Male,19,94
effortobserve,2349,41534,Liking,14,High,270,30,0,Liking,3.046064815,0.8023,Male,19,94
effortobserve,2349,41534,Liking,15,Low,30,30,1,Liking,3.0396527780000002,1.0683,Male,19,94
effortobserve,2349,41534,Liking,16,High,270,270,1,Liking,2.956412037,0.9871,Male,19,94
effortobserve,2349,41534,Liking,17,Low,30,30,1,Liking,3.020347222,0.837,Male,19,94
effortobserve,2349,41534,Liking,18,Medium,100,100,1,Liking,3.045625,0.4703,Male,19,94
effortobserve,2349,41591,Value,1,Low,30,30,1,Value,2.986597222,4.7777,Female,21,114
effortobserve,2349,41591,Value,2,Medium,100,100,1,Value,3.996273148,3.3681,Female,21,114
effortobserve,2349,41591,Value,3,High,270,270,1,Value,3.979027778,2.1195,Female,21,114
effortobserve,2349,41591,Value,4,Low,30,30,1,Value,1.035972222,2.1216,Female,21,114
effortobserve,2349,41591,Value,5,High,270,270,1,Value,3.995162037,4.6993,Female,21,114
effortobserve,2349,41591,Value,6,Medium,100,100,1,Value,1.945625,6.4503,Female,21,114
effortobserve,2349,41591,Value,7,High,270,270,1,Value,1.959699074,13.4698,Female,21,114
effortobserve,2349,41591,Value,8,Medium,100,100,1,Value,2.004328704,2.2535,Female,21,114
effortobserve,2349,41591,Value,9,Low,30,30,1,Value,2.021388889,1.8027,Female,21,114
effortobserve,2349,41591,Value,10,Medium,100,100,1,Value,2.007361111,3.6003,Female,21,114
effortobserve,2349,41591,Value,11,Low,30,30,1,Value,1.036736111,2.6337,Female,21,114
effortobserve,2349,41591,Value,12,High,270,270,1,Value,1.997314815,1.4048,Female,21,114
effortobserve,2349,41591,Value,13,Medium,100,100,1,Value,1.986736111,2.0882,Female,21,114
effortobserve,2349,41591,Value,14,High,270,100,0,Value,2.9625,0.9866,Female,21,114
effortobserve,2349,41591,Value,15,Low,30,30,1,Value,2.029282407,12.1509,Female,21,114
effortobserve,2349,41591,Value,16,High,270,30,0,Value,1.019351852,1.518,Female,21,114
effortobserve,2349,41591,Value,17,Low,30,30,1,Value,4.008726852,2.3376,Female,21,114
effortobserve,2349,41591,Value,18,Medium,100,100,1,Value,2.945671296,1.6853,Female,21,114
effortobserve,2349,41624,Liking,1,Low,30,30,1,Liking,3.008,6.0855,Female,18,20
effortobserve,2349,41624,Liking,2,Medium,100,100,1,Liking,1,6.7461,Female,18,20
effortobserve,2349,41624,Liking,3,High,270,270,1,Liking,3.994666667,2.7718,Female,18,20
effortobserve,2349,41624,Liking,4,Low,30,30,1,Liking,3.002666667,2.1569,Female,18,20
effortobserve,2349,41624,Liking,5,High,270,270,1,Liking,2.005333333,7.7189,Female,18,20
effortobserve,2349,41624,Liking,6,Medium,100,100,1,Liking,1.042666667,2.5865,Female,18,20
effortobserve,2349,41624,Liking,7,High,270,270,1,Liking,1.906666667,6.8261,Female,18,20
effortobserve,2349,41624,Liking,8,Medium,100,100,1,Liking,1.621333333,1.8434,Female,18,20
effortobserve,2349,41624,Liking,9,Low,30,30,1,Liking,1.845333333,1.4372,Female,18,20
effortobserve,2349,41624,Liking,10,Medium,100,100,1,Liking,2.410666667,1.3203,Female,18,20
effortobserve,2349,41624,Liking,11,Low,30,30,1,Liking,1.816,1.9102,Female,18,20
effortobserve,2349,41624,Liking,12,High,270,270,1,Liking,2.048,2.0711,Female,18,20
effortobserve,2349,41624,Liking,13,Medium,100,100,1,Liking,3.045333333,1.2609,Female,18,20
effortobserve,2349,41624,Liking,14,High,270,270,1,Liking,2.074666667,1.8418,Female,18,20
effortobserve,2349,41624,Liking,15,Low,30,30,1,Liking,1.472,2.4698,Female,18,20
effortobserve,2349,41624,Liking,16,High,270,270,1,Liking,2.976,1.8392,Female,18,20
effortobserve,2349,41624,Liking,17,Low,30,30,1,Liking,1.506666667,2.1462,Female,18,20
effortobserve,2349,41624,Liking,18,Medium,100,100,1,Liking,1.96,1.4549,Female,18,20
effortobserve,2349,41634,Value,1,Low,30,30,1,Value,2.99753109,5.6322,Female,19,297
effortobserve,2349,41634,Value,2,Medium,100,100,1,Value,4.990123607,2.2937,Female,19,297
effortobserve,2349,41634,Value,3,High,270,270,1,Value,4.958025143,1.0596,Female,19,297
effortobserve,2349,41634,Value,4,Low,30,30,1,Value,2.019753162,1.7944,Female,19,297
effortobserve,2349,41634,Value,5,High,270,270,1,Value,2.209876543,2.1121,Female,19,297
effortobserve,2349,41634,Value,6,Medium,100,100,1,Value,4.032098841,1.2311,Female,19,297
effortobserve,2349,41634,Value,7,High,270,270,1,Value,4.244444671,0.9276,Female,19,297
effortobserve,2349,41634,Value,8,Medium,100,100,1,Value,2.353086495,1.7294,Female,19,297
effortobserve,2349,41634,Value,9,Low,30,30,1,Value,3.197530864,1.5787,Female,19,297
effortobserve,2349,41634,Value,10,Medium,100,100,1,Value,3.938271605,1.4644,Female,19,297
effortobserve,2349,41634,Value,11,Low,30,30,1,Value,2.25679035,0.7571,Female,19,297
effortobserve,2349,41634,Value,12,High,270,270,1,Value,3.66172847,1.4587,Female,19,297
effortobserve,2349,41634,Value,13,Medium,100,100,1,Value,3.669135953,1.2148,Female,19,297
effortobserve,2349,41634,Value,14,High,270,270,1,Value,3.639506399,0.7464,Female,19,297
effortobserve,2349,41634,Value,15,Low,30,30,1,Value,1.26913584,0.5807,Female,19,297
effortobserve,2349,41634,Value,16,High,270,270,1,Value,2.681481632,0.7291,Female,19,297
effortobserve,2349,41634,Value,17,Low,30,30,1,Value,4.990123607,0.5078,Female,19,297
effortobserve,2349,41634,Value,18,Medium,100,100,1,Value,4.987654321,0.463,Female,19,297
effortobserve,2349,41659,Liking,1,Low,30,30,1,Liking,1.99287037,8.1773,Male,19,334
effortobserve,2349,41659,Liking,2,Medium,100,100,1,Liking,3.889444444,2.4285,Male,19,334
effortobserve,2349,41659,Liking,3,High,270,270,1,Liking,2.47525463,3.3364,Male,19,334
effortobserve,2349,41659,Liking,4,Low,30,30,1,Liking,2.99025463,2.5249,Male,19,334
effortobserve,2349,41659,Liking,5,High,270,270,1,Liking,3.01087963,1.3289,Male,19,334
effortobserve,2349,41659,Liking,6,Medium,100,100,1,Liking,4.377430556,2.3506,Male,19,334
effortobserve,2349,41659,Liking,7,High,270,270,1,Liking,3.678148148,2.4638,Male,19,334
effortobserve,2349,41659,Liking,8,Medium,100,100,1,Liking,4.030462963,1.7203,Male,19,334
effortobserve,2349,41659,Liking,9,Low,30,30,1,Liking,4.010300926,1.9897,Male,19,334
effortobserve,2349,41659,Liking,10,Medium,100,100,1,Liking,3.003773148,1.5865,Male,19,334
effortobserve,2349,41659,Liking,11,Low,30,30,1,Liking,3.94537037,1.4697,Male,19,334
effortobserve,2349,41659,Liking,12,High,270,270,1,Liking,3.83337963,3.3106,Male,19,334
effortobserve,2349,41659,Liking,13,Medium,100,30,0,Liking,4.492638889,4.5361,Male,19,334
effortobserve,2349,41659,Liking,14,High,270,270,1,Liking,1.9675,1.5445,Male,19,334
effortobserve,2349,41659,Liking,15,Low,30,30,1,Liking,2.502916667,2.1368,Male,19,334
effortobserve,2349,41659,Liking,16,High,270,270,1,Liking,3.478541667,2.2752,Male,19,334
effortobserve,2349,41659,Liking,17,Low,30,30,1,Liking,3.432523148,2.2234,Male,19,334
effortobserve,2349,41659,Liking,18,Medium,100,100,1,Liking,2.978981481,1.7945,Male,19,334
effortobserve,2349,42047,Liking,1,Low,30,30,1,Liking,3.371998336,3.7315,Female,21,142
effortobserve,2349,42047,Liking,2,Medium,100,100,1,Liking,3.004331597,4.2097,Female,21,142
effortobserve,2349,42047,Liking,3,High,270,270,1,Liking,3.993920718,4.6705,Female,21,142
effortobserve,2349,42047,Liking,4,Low,30,30,1,Liking,4.986128472,1.7207,Female,21,142
effortobserve,2349,42047,Liking,5,High,270,270,1,Liking,3.216892361,0.9383,Female,21,142
effortobserve,2349,42047,Liking,6,Medium,100,100,1,Liking,2.660253183,1.9627,Female,21,142
effortobserve,2349,42047,Liking,7,High,270,270,1,Liking,1.993916016,1.2509,Female,21,142
effortobserve,2349,42047,Liking,8,Medium,100,100,1,Liking,3.016341869,0.9658,Female,21,142
effortobserve,2349,42047,Liking,9,Low,30,30,1,Liking,3.343604601,1.0714,Female,21,142
effortobserve,2349,42047,Liking,10,Medium,100,100,1,Liking,4.040953053,0.8949,Female,21,142
effortobserve,2349,42047,Liking,11,Low,30,30,1,Liking,3.004019821,0.9063,Female,21,142
effortobserve,2349,42047,Liking,12,High,270,270,1,Liking,3.959375362,1.1195,Female,21,142
effortobserve,2349,42047,Liking,13,Medium,100,100,1,Liking,4.379688947,1.4408,Female,21,142
effortobserve,2349,42047,Liking,14,High,270,270,1,Liking,3.598933015,0.7543,Female,21,142
effortobserve,2349,42047,Liking,15,Low,30,30,1,Liking,3.660667679,3.8437,Female,21,142
effortobserve,2349,42047,Liking,16,High,270,270,1,Liking,3.542077546,1.2458,Female,21,142
effortobserve,2349,42047,Liking,17,Low,30,30,1,Liking,2.998715639,0.7206,Female,21,142
effortobserve,2349,42047,Liking,18,Medium,100,100,1,Liking,1.923381076,0.5766,Female,21,142
effortobserve,2349,42162,Liking,1,Low,30,30,1,Liking,2.745717593,5.2127,Female,18,204
effortobserve,2349,42162,Liking,2,Medium,100,100,1,Liking,3.989421296,1.7936,Female,18,204
effortobserve,2349,42162,Liking,3,High,270,270,1,Liking,3.990972222,1.2739,Female,18,204
effortobserve,2349,42162,Liking,4,Low,30,30,1,Liking,1.381712963,1.3093,Female,18,204
effortobserve,2349,42162,Liking,5,High,270,270,1,Liking,2.459074074,1.0098,Female,18,204
effortobserve,2349,42162,Liking,6,Medium,100,100,1,Liking,3.886365741,1.6536,Female,18,204
effortobserve,2349,42162,Liking,7,High,270,270,1,Liking,4.582824074,1.2739,Female,18,204
effortobserve,2349,42162,Liking,8,Medium,100,100,1,Liking,2.87775463,1.465,Female,18,204
effortobserve,2349,42162,Liking,9,Low,30,30,1,Liking,1.410509259,0.8065,Female,18,204
effortobserve,2349,42162,Liking,10,Medium,100,100,1,Liking,3.18775463,1.7471,Female,18,204
effortobserve,2349,42162,Liking,11,Low,30,30,1,Liking,1.419236111,1.0665,Female,18,204
effortobserve,2349,42162,Liking,12,High,270,270,1,Liking,3.326064815,1.3373,Female,18,204
effortobserve,2349,42162,Liking,13,Medium,100,100,1,Liking,1.919606481,2.0299,Female,18,204
effortobserve,2349,42162,Liking,14,High,270,270,1,Liking,2.966134259,1.1131,Female,18,204
effortobserve,2349,42162,Liking,15,Low,30,30,1,Liking,2.538425926,1.1763,Female,18,204
effortobserve,2349,42162,Liking,16,High,270,270,1,Liking,3.931296296,1.2324,Female,18,204
effortobserve,2349,42162,Liking,17,Low,30,30,1,Liking,3.06724537,2.0373,Female,18,204
effortobserve,2349,42162,Liking,18,Medium,100,100,1,Liking,3.09,4.6625,Female,18,204
effortobserve,2349,42518,Value,1,Low,30,30,1,Value,1.478404018,12.2543,Female,19,151
effortobserve,2349,42518,Value,2,Medium,100,100,1,Value,2.481603423,4.5899,Female,19,151
effortobserve,2349,42518,Value,3,High,270,270,1,Value,4.003348214,1.7609,Female,19,151
effortobserve,2349,42518,Value,4,Low,30,30,1,Value,1.463671875,1.3619,Female,19,151
effortobserve,2349,42518,Value,5,High,270,270,1,Value,3.994401042,1.4311,Female,19,151
effortobserve,2349,42518,Value,6,Medium,100,100,1,Value,2.5743675600000002,1.6114,Female,19,151
effortobserve,2349,42518,Value,7,High,270,270,1,Value,3.991164435,1.2946,Female,19,151
effortobserve,2349,42518,Value,8,Medium,100,100,1,Value,2.490736607,0.928,Female,19,151
effortobserve,2349,42518,Value,9,Low,30,30,1,Value,1.528869048,1.2293,Female,19,151
effortobserve,2349,42518,Value,10,Medium,100,270,0,Value,4.010528274,1.228,Female,19,151
effortobserve,2349,42518,Value,11,Low,30,30,1,Value,1.506175595,1.8949,Female,19,151
effortobserve,2349,42518,Value,12,High,270,270,1,Value,4.012369792,1.1282,Female,19,151
effortobserve,2349,42518,Value,13,Medium,100,100,1,Value,2.488467262,2.1457,Female,19,151
effortobserve,2349,42518,Value,14,High,270,270,1,Value,4.010900298,1.1454,Female,19,151
effortobserve,2349,42518,Value,15,Low,30,30,1,Value,1.518173363,4.422,Female,19,151
effortobserve,2349,42518,Value,16,High,270,270,1,Value,3.996075149,0.9773,Female,19,151
effortobserve,2349,42518,Value,17,Low,30,30,1,Value,1.512779018,0.7955,Female,19,151
effortobserve,2349,42518,Value,18,Medium,100,100,1,Value,2.453366815,2.8613,Female,19,151
effortobserve,2349,42878,Value,1,Low,30,30,1,Value,2.812586565,2.2454,Female,18,223
effortobserve,2349,42878,Value,2,Medium,100,100,1,Value,2.47333795,6.1927,Female,18,223
effortobserve,2349,42878,Value,3,High,270,270,1,Value,3.06261542,2.0896,Female,18,223
effortobserve,2349,42878,Value,4,Low,30,30,1,Value,1.614179363,0.8375,Female,18,223
effortobserve,2349,42878,Value,5,High,270,270,1,Value,2.248239843,3.2516,Female,18,223
effortobserve,2349,42878,Value,6,Medium,100,100,1,Value,2.740131579,0.6723,Female,18,223
effortobserve,2349,42878,Value,7,High,270,270,1,Value,3.639369806,0.6392,Female,18,223
effortobserve,2349,42878,Value,8,Medium,100,100,1,Value,3.618247922,0.5528,Female,18,223
effortobserve,2349,42878,Value,9,Low,30,30,1,Value,1.520775623,0.5684,Female,18,223
effortobserve,2349,42878,Value,10,Medium,100,100,1,Value,2.483062096,1.0812,Female,18,223
effortobserve,2349,42878,Value,11,Low,30,30,1,Value,1.634724146,0.4567,Female,18,223
effortobserve,2349,42878,Value,12,High,270,270,1,Value,4.180228532,2.2424,Female,18,223
effortobserve,2349,42878,Value,13,Medium,100,100,1,Value,2.770804478,2.1354,Female,18,223
effortobserve,2349,42878,Value,14,High,270,270,1,Value,3.305517082,1.0045,Female,18,223
effortobserve,2349,42878,Value,15,Low,30,30,1,Value,2.27718144,0.9888,Female,18,223
effortobserve,2349,42878,Value,16,High,270,100,0,Value,2.348684211,0.9526,Female,18,223
effortobserve,2349,42878,Value,17,Low,30,30,1,Value,2.39248615,0.8398,Female,18,223
effortobserve,2349,42878,Value,18,Medium,100,100,1,Value,3.214969991,1.0417,Female,18,223
effortobserve,2349,42906,Liking,1,Low,30,30,1,Liking,3.985185411,3.5039,Male,20,97
effortobserve,2349,42906,Liking,2,Medium,100,100,1,Liking,4.144444784,4.0742,Male,20,97
effortobserve,2349,42906,Liking,3,High,270,270,1,Liking,4.014815154,1.7879,Male,20,97
effortobserve,2349,42906,Liking,4,Low,30,30,1,Liking,4.014815154,6.2079,Male,20,97
effortobserve,2349,42906,Liking,5,High,270,270,1,Liking,3.970370257,6.5224,Male,20,97
effortobserve,2349,42906,Liking,6,Medium,100,100,1,Liking,4.011111224,3.9811,Male,20,97
effortobserve,2349,42906,Liking,7,High,270,100,0,Liking,4.029629743,1.8424,Male,20,97
effortobserve,2349,42906,Liking,8,Medium,100,100,1,Liking,3.818518745,4.5881,Male,20,97
effortobserve,2349,42906,Liking,9,Low,30,30,1,Liking,4.092592593,2.3217,Male,20,97
effortobserve,2349,42906,Liking,10,Medium,100,100,1,Liking,3.744444671,1.5783,Male,20,97
effortobserve,2349,42906,Liking,11,Low,30,30,1,Liking,4.00370393,3.5796,Male,20,97
effortobserve,2349,42906,Liking,12,High,270,270,1,Liking,4.844444557,1.1805,Male,20,97
effortobserve,2349,42906,Liking,13,Medium,100,100,1,Liking,2.974074187,2.2389,Male,20,97
effortobserve,2349,42906,Liking,14,High,270,270,1,Liking,4.044444331,2.4683,Male,20,97
effortobserve,2349,42906,Liking,15,Low,30,30,1,Liking,4,1.1022,Male,20,97
effortobserve,2349,42906,Liking,16,High,270,270,1,Liking,3.388888889,0.8784,Male,20,97
effortobserve,2349,42906,Liking,17,Low,30,30,1,Liking,2.707407351,1.4063,Male,20,97
effortobserve,2349,42906,Liking,18,Medium,100,100,1,Liking,4.814814815,1.8306,Male,20,97
effortobserve,2349,42911,Liking,1,Low,30,30,1,Liking,2.002469287,9.9796,Male,22,182
effortobserve,2349,42911,Liking,2,Medium,100,100,1,Liking,3.009876769,3.6256,Male,22,182
effortobserve,2349,42911,Liking,3,High,270,270,1,Liking,3.039506324,0.7883,Male,22,182
effortobserve,2349,42911,Liking,4,Low,30,30,1,Liking,3.962962963,0.5719,Male,22,182
effortobserve,2349,42911,Liking,5,High,270,270,1,Liking,4.027160645,0.8802,Male,22,182
effortobserve,2349,42911,Liking,6,Medium,100,100,1,Liking,3.933333409,0.5831,Male,22,182
effortobserve,2349,42911,Liking,7,High,270,270,1,Liking,4.925925926,0.4743,Male,22,182
effortobserve,2349,42911,Liking,8,Medium,100,100,1,Liking,4.891358175,0.4018,Male,22,182
effortobserve,2349,42911,Liking,9,Low,30,30,1,Liking,4.896296748,0.4972,Male,22,182
effortobserve,2349,42911,Liking,10,Medium,100,100,1,Liking,4.965432249,0.428,Male,22,182
effortobserve,2349,42911,Liking,11,Low,30,30,1,Liking,4.990123607,0.4168,Male,22,182
effortobserve,2349,42911,Liking,12,High,270,270,1,Liking,4.096296522,0.4253,Male,22,182
effortobserve,2349,42911,Liking,13,Medium,100,100,1,Liking,4.669135953,0.5688,Male,22,182
effortobserve,2349,42911,Liking,14,High,270,270,1,Liking,4.78765417,0.7005,Male,22,182
effortobserve,2349,42911,Liking,15,Low,30,30,1,Liking,4.738271454,0.6944,Male,22,182
effortobserve,2349,42911,Liking,16,High,270,270,1,Liking,4.812345528,0.6493,Male,22,182
effortobserve,2349,42911,Liking,17,Low,30,30,1,Liking,3.439506248,0.683,Male,22,182
effortobserve,2349,42911,Liking,18,Medium,100,100,1,Liking,4.377777853,0.7586,Male,22,182
effortobserve,2349,42961,Liking,1,Low,30,30,1,Liking,2.022222222,4.541,Male,20,261
effortobserve,2349,42961,Liking,2,Medium,100,100,1,Liking,1.083950617,2.121,Male,20,261
effortobserve,2349,42961,Liking,3,High,270,270,1,Liking,1.098765432,1.17,Male,20,261
effortobserve,2349,42961,Liking,4,Low,30,30,1,Liking,1.02962963,0.68,Male,20,261
effortobserve,2349,42961,Liking,5,High,270,270,1,Liking,1.962962963,2.004,Male,20,261
effortobserve,2349,42961,Liking,6,Medium,100,100,1,Liking,1.12345679,0.861,Male,20,261
effortobserve,2349,42961,Liking,7,High,270,270,1,Liking,1.913580247,0.87,Male,20,261
effortobserve,2349,42961,Liking,8,Medium,100,100,1,Liking,1.088888889,1.86,Male,20,261
effortobserve,2349,42961,Liking,9,Low,30,30,1,Liking,2.886419753,1.003,Male,20,261
effortobserve,2349,42961,Liking,10,Medium,100,100,1,Liking,1.928395062,0.497,Male,20,261
effortobserve,2349,42961,Liking,11,Low,30,30,1,Liking,1.52345679,1.82,Male,20,261
effortobserve,2349,42961,Liking,12,High,270,270,1,Liking,2.007407407,0.674,Male,20,261
effortobserve,2349,42961,Liking,13,Medium,100,100,1,Liking,1.671604938,0.578,Male,20,261
effortobserve,2349,42961,Liking,14,High,270,270,1,Liking,1.039506173,0.545,Male,20,261
effortobserve,2349,42961,Liking,15,Low,30,30,1,Liking,1.671604938,0.711,Male,20,261
effortobserve,2349,42961,Liking,16,High,270,270,1,Liking,1.839506173,1.071,Male,20,261
effortobserve,2349,42961,Liking,17,Low,30,30,1,Liking,1.765432099,0.54,Male,20,261
effortobserve,2349,42961,Liking,18,Medium,100,100,1,Liking,2.091358025,3.271,Male,20,261
effortobserve,2349,42978,Value,1,Low,30,30,1,Value,1.011111224,10.3335,Female,19,255
effortobserve,2349,42978,Value,2,Medium,100,100,1,Value,4.011111224,5.1607,Female,19,255
effortobserve,2349,42978,Value,3,High,270,270,1,Value,4.988888776,5.225,Female,19,255
effortobserve,2349,42978,Value,4,Low,30,30,1,Value,1.051851908,1.0973,Female,19,255
effortobserve,2349,42978,Value,5,High,270,270,1,Value,4.985185411,2.4616,Female,19,255
effortobserve,2349,42978,Value,6,Medium,100,100,1,Value,2.985185129,1.5591,Female,19,255
effortobserve,2349,42978,Value,7,High,270,270,1,Value,4.970370257,3.5284,Female,19,255
effortobserve,2349,42978,Value,8,Medium,100,100,1,Value,2.962962963,0.6796,Female,19,255
effortobserve,2349,42978,Value,9,Low,30,30,1,Value,1.007407577,0.637,Female,19,255
effortobserve,2349,42978,Value,10,Medium,100,100,1,Value,2.985185129,2.581,Female,19,255
effortobserve,2349,42978,Value,11,Low,30,30,1,Value,1.06666678,2.2907,Female,19,255
effortobserve,2349,42978,Value,12,High,270,270,1,Value,4.996296635,1.4194,Female,19,255
effortobserve,2349,42978,Value,13,Medium,100,100,1,Value,3.022222448,1.6471,Female,19,255
effortobserve,2349,42978,Value,14,High,270,270,1,Value,4.922222561,0.6598,Female,19,255
effortobserve,2349,42978,Value,15,Low,30,30,1,Value,1.025926095,2.1083,Female,19,255
effortobserve,2349,42978,Value,16,High,270,270,1,Value,4.944444444,2.516,Female,19,255
effortobserve,2349,42978,Value,17,Low,30,30,1,Value,1,0.9734,Female,19,255
effortobserve,2349,42978,Value,18,Medium,100,100,1,Value,2.962962963,0.8859,Female,19,255
effortobserve,2349,43207,Value,1,Low,30,30,1,Value,3.004938422,6.042,Female,20,42
effortobserve,2349,43207,Value,2,Medium,100,100,1,Value,2.061728696,1.8849,Female,20,42
