experiment_name,id,trial,condition,effort_level,rating,rt,gender,age,belief_liking,belief_value,profile,score_diff,score_weighted,score_slope
ratingclicks_within,24206,1,Liking,Low,1.503703704,5.5883,Female,31,No Difference,More,Mixed,3,1.5,1.4999999999999982
ratingclicks_within,24206,2,Liking,Medium,2.72345679,3.6165,Female,31,No Difference,More,Mixed,3,1.5,1.4999999999999982
ratingclicks_within,24206,3,Liking,High,3.641975309,4.2753,Female,31,No Difference,More,Mixed,3,1.5,1.4999999999999982
ratingclicks_within,24206,4,Liking,Low,2.397530864,2.3103,Female,31,No Difference,More,Mixed,3,1.5,1.4999999999999982
ratingclicks_within,24206,5,Liking,High,2.486419753,2.6853,Female,31,No Difference,More,Mixed,3,1.5,1.4999999999999982
ratingclicks_within,24206,6,Liking,Medium,2.081481481,1.5366,Female,31,No Difference,More,Mixed,3,1.5,1.4999999999999982
ratingclicks_within,24206,7,Liking,High,1.859259259,5.8903,Female,31,No Difference,More,Mixed,3,1.5,1.4999999999999982
ratingclicks_within,24206,8,Liking,Medium,2.086419753,2.2804,Female,31,No Difference,More,Mixed,3,1.5,1.4999999999999982
ratingclicks_within,24206,9,Liking,Low,1.449382716,2.3651,Female,31,No Difference,More,Mixed,3,1.5,1.4999999999999982
ratingclicks_within,24206,10,Value,Medium,2.441975309,6.5751,Female,31,No Difference,More,Mixed,3,1.5,1.4999999999999982
ratingclicks_within,24206,11,Value,Low,1.49382716,4.0491,Female,31,No Difference,More,Mixed,3,1.5,1.4999999999999982
ratingclicks_within,24206,12,Value,High,3.024691358,6.5176,Female,31,No Difference,More,Mixed,3,1.5,1.4999999999999982
ratingclicks_within,24206,13,Value,Medium,3.439506173,7.4341,Female,31,No Difference,More,Mixed,3,1.5,1.4999999999999982
ratingclicks_within,24206,14,Value,High,2.565432099,11.9529,Female,31,No Difference,More,Mixed,3,1.5,1.4999999999999982
ratingclicks_within,24206,15,Value,Low,2.604938272,11.4485,Female,31,No Difference,More,Mixed,3,1.5,1.4999999999999982
ratingclicks_within,24206,16,Value,High,4.032098765,5.5809,Female,31,No Difference,More,Mixed,3,1.5,1.4999999999999982
ratingclicks_within,24206,17,Value,Low,4.604938272,5.3684,Female,31,No Difference,More,Mixed,3,1.5,1.4999999999999982
ratingclicks_within,24206,18,Value,Medium,4.980246914,2.4519,Female,31,No Difference,More,Mixed,3,1.5,1.4999999999999982
ratingclicks_within,36954,1,Value,Low,1,5.3414,Female,24,More,More,Mixed,0,0,-6.280369834735103e-16
ratingclicks_within,36954,2,Value,Medium,2.011111111,5.6169,Female,24,More,More,Mixed,0,0,-6.280369834735103e-16
ratingclicks_within,36954,3,Value,High,3.985185185,1.7197,Female,24,More,More,Mixed,0,0,-6.280369834735103e-16
ratingclicks_within,36954,4,Value,Low,1,1.9463,Female,24,More,More,Mixed,0,0,-6.280369834735103e-16
ratingclicks_within,36954,5,Value,High,4.996296296,4.4862,Female,24,More,More,Mixed,0,0,-6.280369834735103e-16
ratingclicks_within,36954,6,Value,Medium,2.992592593,2.7111,Female,24,More,More,Mixed,0,0,-6.280369834735103e-16
ratingclicks_within,36954,7,Value,High,2.996296296,3.401,Female,24,More,More,Mixed,0,0,-6.280369834735103e-16
ratingclicks_within,36954,8,Value,Medium,2.007407407,1.1665,Female,24,More,More,Mixed,0,0,-6.280369834735103e-16
ratingclicks_within,36954,9,Value,Low,1.003703704,1.2043,Female,24,More,More,Mixed,0,0,-6.280369834735103e-16
ratingclicks_within,36954,10,Liking,Medium,2.585185185,8.6726,Female,24,More,More,Mixed,0,0,-6.280369834735103e-16
ratingclicks_within,36954,11,Liking,Low,4.288888889,2.4406,Female,24,More,More,Mixed,0,0,-6.280369834735103e-16
ratingclicks_within,36954,12,Liking,High,1,6.0598,Female,24,More,More,Mixed,0,0,-6.280369834735103e-16
ratingclicks_within,36954,13,Liking,Medium,3.488888889,6.2376,Female,24,More,More,Mixed,0,0,-6.280369834735103e-16
ratingclicks_within,36954,14,Liking,High,3.255555556,19.4868,Female,24,More,More,Mixed,0,0,-6.280369834735103e-16
ratingclicks_within,36954,15,Liking,Low,4.562962963,4.3545,Female,24,More,More,Mixed,0,0,-6.280369834735103e-16
ratingclicks_within,36954,16,Liking,High,4.988888889,2.277,Female,24,More,More,Mixed,0,0,-6.280369834735103e-16
ratingclicks_within,36954,17,Liking,Low,4.974074074,1.4881,Female,24,More,More,Mixed,0,0,-6.280369834735103e-16
ratingclicks_within,36954,18,Liking,Medium,2.5,2.0618,Female,24,More,More,Mixed,0,0,-6.280369834735103e-16
ratingclicks_within,38374,1,Liking,Low,1.971254987,7.7797,Female,22,More,More,Mixed,0,0,-0
ratingclicks_within,38374,2,Liking,Medium,3.042120058,6.1524,Female,22,More,More,Mixed,0,0,-0
ratingclicks_within,38374,3,Liking,High,1.891367428,2.3695,Female,22,More,More,Mixed,0,0,-0
ratingclicks_within,38374,4,Liking,Low,4.005690062,1.4125,Female,22,More,More,Mixed,0,0,-0
ratingclicks_within,38374,5,Liking,High,2.986103555,6.827,Female,22,More,More,Mixed,0,0,-0
ratingclicks_within,38374,6,Liking,Medium,3.076577802,1.0951,Female,22,More,More,Mixed,0,0,-0
ratingclicks_within,38374,7,Liking,High,2.962867247,14.4113,Female,22,More,More,Mixed,0,0,-0
ratingclicks_within,38374,8,Liking,Medium,2.948721436,0.8033,Female,22,More,More,Mixed,0,0,-0
ratingclicks_within,38374,9,Liking,Low,3.909616431,0.6943,Female,22,More,More,Mixed,0,0,-0
ratingclicks_within,38374,10,Value,Medium,1.00893181,3.9619,Female,22,More,More,Mixed,0,0,-0
ratingclicks_within,38374,11,Value,Low,2.954456837,2.9875,Female,22,More,More,Mixed,0,0,-0
ratingclicks_within,38374,12,Value,High,1.049623685,1.7536,Female,22,More,More,Mixed,0,0,-0
ratingclicks_within,38374,13,Value,Medium,3.112554407,12.6112,Female,22,More,More,Mixed,0,0,-0
ratingclicks_within,38374,14,Value,High,2.999365252,2.1717,Female,22,More,More,Mixed,0,0,-0
ratingclicks_within,38374,15,Value,Low,3.039127675,1.7961,Female,22,More,More,Mixed,0,0,-0
ratingclicks_within,38374,16,Value,High,2.98476605,9.4341,Female,22,More,More,Mixed,0,0,-0
ratingclicks_within,38374,17,Value,Low,3.970733587,1.728,Female,22,More,More,Mixed,0,0,-0
ratingclicks_within,38374,18,Value,Medium,1.953980776,2.0391,Female,22,More,More,Mixed,0,0,-0
ratingclicks_within,39830,1,Value,Low,1.978333333,5.8857,Female,22,Less,Less,Decreasing,-1,-0.5,-0.500000000000002
ratingclicks_within,39830,2,Value,Medium,2.442615741,7.5451,Female,22,Less,Less,Decreasing,-1,-0.5,-0.500000000000002
ratingclicks_within,39830,3,Value,High,2.22962963,4.2436,Female,22,Less,Less,Decreasing,-1,-0.5,-0.500000000000002
ratingclicks_within,39830,4,Value,Low,4.031412037,1.9456,Female,22,Less,Less,Decreasing,-1,-0.5,-0.500000000000002
ratingclicks_within,39830,5,Value,High,2.151990741,1.3442,Female,22,Less,Less,Decreasing,-1,-0.5,-0.500000000000002
ratingclicks_within,39830,6,Value,Medium,2.873865741,11.4101,Female,22,Less,Less,Decreasing,-1,-0.5,-0.500000000000002
ratingclicks_within,39830,7,Value,High,2.327569444,3.1096,Female,22,Less,Less,Decreasing,-1,-0.5,-0.500000000000002
ratingclicks_within,39830,8,Value,Medium,1.971712963,3.7178,Female,22,Less,Less,Decreasing,-1,-0.5,-0.500000000000002
ratingclicks_within,39830,9,Value,Low,3.541990741,15.4826,Female,22,Less,Less,Decreasing,-1,-0.5,-0.500000000000002
ratingclicks_within,39830,10,Liking,Medium,2.032453704,3.294,Female,22,Less,Less,Decreasing,-1,-0.5,-0.500000000000002
ratingclicks_within,39830,11,Liking,Low,3.366412037,11.5606,Female,22,Less,Less,Decreasing,-1,-0.5,-0.500000000000002
ratingclicks_within,39830,12,Liking,High,1,2.9122,Female,22,Less,Less,Decreasing,-1,-0.5,-0.500000000000002
ratingclicks_within,39830,13,Liking,Medium,3.477800926,1.6957,Female,22,Less,Less,Decreasing,-1,-0.5,-0.500000000000002
ratingclicks_within,39830,14,Liking,High,1.579837963,4.6445,Female,22,Less,Less,Decreasing,-1,-0.5,-0.500000000000002
ratingclicks_within,39830,15,Liking,Low,4.244699074,1.0944,Female,22,Less,Less,Decreasing,-1,-0.5,-0.500000000000002
ratingclicks_within,39830,16,Liking,High,1.65900463,2.8131,Female,22,Less,Less,Decreasing,-1,-0.5,-0.500000000000002
ratingclicks_within,39830,17,Liking,Low,3.837569444,0.9862,Female,22,Less,Less,Decreasing,-1,-0.5,-0.500000000000002
ratingclicks_within,39830,18,Liking,Medium,2.573958333,13.5612,Female,22,Less,Less,Decreasing,-1,-0.5,-0.500000000000002
ratingclicks_within,40119,1,Liking,Low,5,15.9565,Female,21,No Difference,No Difference,Increasing,16,8,8
ratingclicks_within,40119,2,Liking,Medium,4.539189815,4.433,Female,21,No Difference,No Difference,Increasing,16,8,8
ratingclicks_within,40119,3,Liking,High,3.999166667,3.6945,Female,21,No Difference,No Difference,Increasing,16,8,8
ratingclicks_within,40119,4,Liking,Low,2.014467593,3.6494,Female,21,No Difference,No Difference,Increasing,16,8,8
ratingclicks_within,40119,5,Liking,High,1.495856481,3.2788,Female,21,No Difference,No Difference,Increasing,16,8,8
ratingclicks_within,40119,6,Liking,Medium,1.994074074,3.1116,Female,21,No Difference,No Difference,Increasing,16,8,8
ratingclicks_within,40119,7,Liking,High,5,2.5355,Female,21,No Difference,No Difference,Increasing,16,8,8
ratingclicks_within,40119,8,Liking,Medium,1.996944444,3.7182,Female,21,No Difference,No Difference,Increasing,16,8,8
ratingclicks_within,40119,9,Liking,Low,3.008078704,2.7784,Female,21,No Difference,No Difference,Increasing,16,8,8
ratingclicks_within,40119,10,Value,Medium,1.512800926,4.4281,Female,21,No Difference,No Difference,Increasing,16,8,8
ratingclicks_within,40119,11,Value,Low,1.338287037,2.7464,Female,21,No Difference,No Difference,Increasing,16,8,8
ratingclicks_within,40119,12,Value,High,3.002638889,3.5443,Female,21,No Difference,No Difference,Increasing,16,8,8
ratingclicks_within,40119,13,Value,Medium,2.494699074,2.6968,Female,21,No Difference,No Difference,Increasing,16,8,8
ratingclicks_within,40119,14,Value,High,1,3.0943,Female,21,No Difference,No Difference,Increasing,16,8,8
ratingclicks_within,40119,15,Value,Low,2.009814815,3.0841,Female,21,No Difference,No Difference,Increasing,16,8,8
ratingclicks_within,40119,16,Value,High,1.54587963,4.4124,Female,21,No Difference,No Difference,Increasing,16,8,8
ratingclicks_within,40119,17,Value,Low,1.477222222,4.0462,Female,21,No Difference,No Difference,Increasing,16,8,8
ratingclicks_within,40119,18,Value,Medium,1,2.8123,Female,21,No Difference,No Difference,Increasing,16,8,8
ratingclicks_within,40306,1,Liking,Low,2.969212963,8.6381,Female,21,More,Less,Decreasing,-1,-0.5,-0.5000000000000004
ratingclicks_within,40306,2,Liking,Medium,2.015902778,5.4023,Female,21,More,Less,Decreasing,-1,-0.5,-0.5000000000000004
ratingclicks_within,40306,3,Liking,High,2.031458333,2.5095,Female,21,More,Less,Decreasing,-1,-0.5,-0.5000000000000004
ratingclicks_within,40306,4,Liking,Low,1.21,25.6601,Female,21,More,Less,Decreasing,-1,-0.5,-0.5000000000000004
ratingclicks_within,40306,5,Liking,High,1.993310185,8.1474,Female,21,More,Less,Decreasing,-1,-0.5,-0.5000000000000004
ratingclicks_within,40306,6,Liking,Medium,1.973912037,1.4499,Female,21,More,Less,Decreasing,-1,-0.5,-0.5000000000000004
ratingclicks_within,40306,7,Liking,High,1.905578704,2.0098,Female,21,More,Less,Decreasing,-1,-0.5,-0.5000000000000004
ratingclicks_within,40306,8,Liking,Medium,2.00375,1.7108,Female,21,More,Less,Decreasing,-1,-0.5,-0.5000000000000004
ratingclicks_within,40306,9,Liking,Low,2.045601852,2.0329,Female,21,More,Less,Decreasing,-1,-0.5,-0.5000000000000004
ratingclicks_within,40306,10,Value,Medium,1.802893519,3.3325,Female,21,More,Less,Decreasing,-1,-0.5,-0.5000000000000004
ratingclicks_within,40306,11,Value,Low,1.503148148,3.6935,Female,21,More,Less,Decreasing,-1,-0.5,-0.5000000000000004
ratingclicks_within,40306,12,Value,High,2.034421296,1.3017,Female,21,More,Less,Decreasing,-1,-0.5,-0.5000000000000004
ratingclicks_within,40306,13,Value,Medium,2.044259259,2.512,Female,21,More,Less,Decreasing,-1,-0.5,-0.5000000000000004
ratingclicks_within,40306,14,Value,High,2.10462963,20.9786,Female,21,More,Less,Decreasing,-1,-0.5,-0.5000000000000004
ratingclicks_within,40306,15,Value,Low,2.945069444,1.4958,Female,21,More,Less,Decreasing,-1,-0.5,-0.5000000000000004
ratingclicks_within,40306,16,Value,High,2.102037037,21.0604,Female,21,More,Less,Decreasing,-1,-0.5,-0.5000000000000004
ratingclicks_within,40306,17,Value,Low,2.000486111,1.1137,Female,21,More,Less,Decreasing,-1,-0.5,-0.5000000000000004
ratingclicks_within,40306,18,Value,Medium,2.984444444,2.5635,Female,21,More,Less,Decreasing,-1,-0.5,-0.5000000000000004
ratingclicks_within,40540,1,Liking,Low,5,3.4026,Female,21,No Difference,No Difference,Mixed,-5,-2.5,-2.500000000000001
ratingclicks_within,40540,2,Liking,Medium,4.041975233,3.9229,Female,21,No Difference,No Difference,Mixed,-5,-2.5,-2.500000000000001
ratingclicks_within,40540,3,Liking,High,1.893827085,1.3255,Female,21,No Difference,No Difference,Mixed,-5,-2.5,-2.500000000000001
ratingclicks_within,40540,4,Liking,Low,2.965432249,3.2888,Female,21,No Difference,No Difference,Mixed,-5,-2.5,-2.500000000000001
ratingclicks_within,40540,5,Liking,High,1,5.0891,Female,21,No Difference,No Difference,Mixed,-5,-2.5,-2.500000000000001
ratingclicks_within,40540,6,Liking,Medium,1.735802544,2.7916,Female,21,No Difference,No Difference,Mixed,-5,-2.5,-2.500000000000001
ratingclicks_within,40540,7,Liking,High,1.948148374,2.1552,Female,21,No Difference,No Difference,Mixed,-5,-2.5,-2.500000000000001
ratingclicks_within,40540,8,Liking,Medium,2.180246989,1.4724,Female,21,No Difference,No Difference,Mixed,-5,-2.5,-2.500000000000001
ratingclicks_within,40540,9,Liking,Low,2.165432023,1.2564,Female,21,No Difference,No Difference,Mixed,-5,-2.5,-2.500000000000001
ratingclicks_within,40540,10,Value,Medium,2.086419753,3.9668,Female,21,No Difference,No Difference,Mixed,-5,-2.5,-2.500000000000001
ratingclicks_within,40540,11,Value,Low,3.009876769,1.2008,Female,21,No Difference,No Difference,Mixed,-5,-2.5,-2.500000000000001
ratingclicks_within,40540,12,Value,High,3.50370393,3.9756,Female,21,No Difference,No Difference,Mixed,-5,-2.5,-2.500000000000001
ratingclicks_within,40540,13,Value,Medium,3.982716125,2.4927,Female,21,No Difference,No Difference,Mixed,-5,-2.5,-2.500000000000001
ratingclicks_within,40540,14,Value,High,3.523456715,2.8104,Female,21,No Difference,No Difference,Mixed,-5,-2.5,-2.500000000000001
ratingclicks_within,40540,15,Value,Low,4.022222448,2.6049,Female,21,No Difference,No Difference,Mixed,-5,-2.5,-2.500000000000001
ratingclicks_within,40540,16,Value,High,3.5827162,1.1809,Female,21,No Difference,No Difference,Mixed,-5,-2.5,-2.500000000000001
ratingclicks_within,40540,17,Value,Low,2.333333333,4.3728,Female,21,No Difference,No Difference,Mixed,-5,-2.5,-2.500000000000001
ratingclicks_within,40540,18,Value,Medium,2.624691433,2.4225,Female,21,No Difference,No Difference,Mixed,-5,-2.5,-2.500000000000001
ratingclicks_within,40604,1,Value,Low,2.525926001,6.8138,Female,21,No Difference,More,Increasing,11,5.5,5.500000000000002
ratingclicks_within,40604,2,Value,Medium,5,1.1696,Female,21,No Difference,More,Increasing,11,5.5,5.500000000000002
ratingclicks_within,40604,3,Value,High,5,2.2039,Female,21,No Difference,More,Increasing,11,5.5,5.500000000000002
ratingclicks_within,40604,4,Value,Low,1.533333484,2.3553,Female,21,No Difference,More,Increasing,11,5.5,5.500000000000002
ratingclicks_within,40604,5,Value,High,4.367901461,2.9535,Female,21,No Difference,More,Increasing,11,5.5,5.500000000000002
ratingclicks_within,40604,6,Value,Medium,2.970370446,1.1297,Female,21,No Difference,More,Increasing,11,5.5,5.500000000000002
ratingclicks_within,40604,7,Value,High,5,1.9713,Female,21,No Difference,More,Increasing,11,5.5,5.500000000000002
ratingclicks_within,40604,8,Value,Medium,1.99753109,1.5367,Female,21,No Difference,More,Increasing,11,5.5,5.500000000000002
ratingclicks_within,40604,9,Value,Low,1,4.1706,Female,21,No Difference,More,Increasing,11,5.5,5.500000000000002
ratingclicks_within,40604,10,Liking,Medium,3.029629554,2.913,Female,21,No Difference,More,Increasing,11,5.5,5.500000000000002
ratingclicks_within,40604,11,Liking,Low,5,1.9071,Female,21,No Difference,More,Increasing,11,5.5,5.500000000000002
ratingclicks_within,40604,12,Liking,High,1.004938385,1.0201,Female,21,No Difference,More,Increasing,11,5.5,5.500000000000002
ratingclicks_within,40604,13,Liking,Medium,2.007407483,1.6072,Female,21,No Difference,More,Increasing,11,5.5,5.500000000000002
ratingclicks_within,40604,14,Liking,High,1.014814777,2.1039,Female,21,No Difference,More,Increasing,11,5.5,5.500000000000002
ratingclicks_within,40604,15,Liking,Low,4.985185034,1.714,Female,21,No Difference,More,Increasing,11,5.5,5.500000000000002
ratingclicks_within,40604,16,Liking,High,1,1.9585,Female,21,No Difference,More,Increasing,11,5.5,5.500000000000002
ratingclicks_within,40604,17,Liking,Low,5,2.3895,Female,21,No Difference,More,Increasing,11,5.5,5.500000000000002
ratingclicks_within,40604,18,Liking,Medium,3.014814966,1.1132,Female,21,No Difference,More,Increasing,11,5.5,5.500000000000002
ratingclicks_within,40930,1,Liking,Low,4.277314815,3.4725,Female,21,More,More,Mixed,0,0,-4.710277376051327e-16
ratingclicks_within,40930,2,Liking,Medium,2.507476852,1.9637,Female,21,More,More,Mixed,0,0,-4.710277376051327e-16
ratingclicks_within,40930,3,Liking,High,2.745208333,4.7099,Female,21,More,More,Mixed,0,0,-4.710277376051327e-16
ratingclicks_within,40930,4,Liking,Low,4.21375,2.8107,Female,21,More,More,Mixed,0,0,-4.710277376051327e-16
ratingclicks_within,40930,5,Liking,High,3.268726852,3.0433,Female,21,More,More,Mixed,0,0,-4.710277376051327e-16
ratingclicks_within,40930,6,Liking,Medium,3.675648148,8.094,Female,21,More,More,Mixed,0,0,-4.710277376051327e-16
ratingclicks_within,40930,7,Liking,High,4.456527778,2.5295,Female,21,More,More,Mixed,0,0,-4.710277376051327e-16
ratingclicks_within,40930,8,Liking,Medium,1.192638889,1.8626,Female,21,More,More,Mixed,0,0,-4.710277376051327e-16
ratingclicks_within,40930,9,Liking,Low,2.979143519,5.4637,Female,21,More,More,Mixed,0,0,-4.710277376051327e-16
ratingclicks_within,40930,10,Value,Medium,2.499444444,12.5941,Female,21,More,More,Mixed,0,0,-4.710277376051327e-16
ratingclicks_within,40930,11,Value,Low,3.474606481,3.7619,Female,21,More,More,Mixed,0,0,-4.710277376051327e-16
ratingclicks_within,40930,12,Value,High,2.002685185,4.4798,Female,21,More,More,Mixed,0,0,-4.710277376051327e-16
ratingclicks_within,40930,13,Value,Medium,1.352268519,4.1628,Female,21,More,More,Mixed,0,0,-4.710277376051327e-16
ratingclicks_within,40930,14,Value,High,3.487638889,3.3444,Female,21,More,More,Mixed,0,0,-4.710277376051327e-16
ratingclicks_within,40930,15,Value,Low,1.769328704,2.1946,Female,21,More,More,Mixed,0,0,-4.710277376051327e-16
ratingclicks_within,40930,16,Value,High,4.234166667,7.1117,Female,21,More,More,Mixed,0,0,-4.710277376051327e-16
ratingclicks_within,40930,17,Value,Low,3.002523148,2.6456,Female,21,More,More,Mixed,0,0,-4.710277376051327e-16
ratingclicks_within,40930,18,Value,Medium,1.239953704,3.6772,Female,21,More,More,Mixed,0,0,-4.710277376051327e-16
ratingclicks_within,40987,1,Value,Low,1.340740741,9.017,Female,21,No Difference,No Difference,Increasing,6,3,2.9999999999999996
ratingclicks_within,40987,2,Value,Medium,2.502222222,4.483,Female,21,No Difference,No Difference,Increasing,6,3,2.9999999999999996
ratingclicks_within,40987,3,Value,High,1.619259259,6.588,Female,21,No Difference,No Difference,Increasing,6,3,2.9999999999999996
ratingclicks_within,40987,4,Value,Low,1.957037037,13.583,Female,21,No Difference,No Difference,Increasing,6,3,2.9999999999999996
ratingclicks_within,40987,5,Value,High,2.964444444,3.551,Female,21,No Difference,No Difference,Increasing,6,3,2.9999999999999996
ratingclicks_within,40987,6,Value,Medium,1.447407407,7.217,Female,21,No Difference,No Difference,Increasing,6,3,2.9999999999999996
ratingclicks_within,40987,7,Value,High,1.992592593,7.857,Female,21,No Difference,No Difference,Increasing,6,3,2.9999999999999996
ratingclicks_within,40987,8,Value,Medium,3.165925926,10.918,Female,21,No Difference,No Difference,Increasing,6,3,2.9999999999999996
ratingclicks_within,40987,9,Value,Low,2.834074074,2.102,Female,21,No Difference,No Difference,Increasing,6,3,2.9999999999999996
ratingclicks_within,40987,10,Liking,Medium,1.69037037,5.571,Female,21,No Difference,No Difference,Increasing,6,3,2.9999999999999996
ratingclicks_within,40987,11,Liking,Low,3.379259259,7.358,Female,21,No Difference,No Difference,Increasing,6,3,2.9999999999999996
ratingclicks_within,40987,12,Liking,High,1.536296296,7.879,Female,21,No Difference,No Difference,Increasing,6,3,2.9999999999999996
ratingclicks_within,40987,13,Liking,Medium,2.075555556,2.461,Female,21,No Difference,No Difference,Increasing,6,3,2.9999999999999996
ratingclicks_within,40987,14,Liking,High,2.371851852,19.784,Female,21,No Difference,No Difference,Increasing,6,3,2.9999999999999996
ratingclicks_within,40987,15,Liking,Low,2.484444444,2.451,Female,21,No Difference,No Difference,Increasing,6,3,2.9999999999999996
ratingclicks_within,40987,16,Liking,High,1.506666667,3.885,Female,21,No Difference,No Difference,Increasing,6,3,2.9999999999999996
ratingclicks_within,40987,17,Liking,Low,2.01037037,3.601,Female,21,No Difference,No Difference,Increasing,6,3,2.9999999999999996
ratingclicks_within,40987,18,Liking,Medium,1.488888889,11.016,Female,21,No Difference,No Difference,Increasing,6,3,2.9999999999999996
ratingclicks_within,41008,1,Value,Low,2.972268519,7.6287,Female,21,More,More,Increasing,8,4,3.9999999999999987
ratingclicks_within,41008,2,Value,Medium,4.033564815,3.6276,Female,21,More,More,Increasing,8,4,3.9999999999999987
ratingclicks_within,41008,3,Value,High,2.960902778,3.8162,Female,21,More,More,Increasing,8,4,3.9999999999999987
ratingclicks_within,41008,4,Value,Low,1.036898148,0.9019,Female,21,More,More,Increasing,8,4,3.9999999999999987
ratingclicks_within,41008,5,Value,High,1.462708333,1.4922,Female,21,More,More,Increasing,8,4,3.9999999999999987
ratingclicks_within,41008,6,Value,Medium,3.284212963,2.1657,Female,21,More,More,Increasing,8,4,3.9999999999999987
ratingclicks_within,41008,7,Value,High,1.632430556,2.1336,Female,21,More,More,Increasing,8,4,3.9999999999999987
ratingclicks_within,41008,8,Value,Medium,2.977199074,1.5982,Female,21,More,More,Increasing,8,4,3.9999999999999987
ratingclicks_within,41008,9,Value,Low,4.045023148,1.7002,Female,21,More,More,Increasing,8,4,3.9999999999999987
ratingclicks_within,41008,10,Liking,Medium,1.607824074,1.8102,Female,21,More,More,Increasing,8,4,3.9999999999999987
ratingclicks_within,41008,11,Liking,Low,1.740138889,3.4109,Female,21,More,More,Increasing,8,4,3.9999999999999987
ratingclicks_within,41008,12,Liking,High,1.506064815,3.5257,Female,21,More,More,Increasing,8,4,3.9999999999999987
ratingclicks_within,41008,13,Liking,Medium,2.481273148,1.2781,Female,21,More,More,Increasing,8,4,3.9999999999999987
ratingclicks_within,41008,14,Liking,High,1.603888889,1.3301,Female,21,More,More,Increasing,8,4,3.9999999999999987
ratingclicks_within,41008,15,Liking,Low,1.145185185,1.495,Female,21,More,More,Increasing,8,4,3.9999999999999987
ratingclicks_within,41008,16,Liking,High,1.994606481,4.5254,Female,21,More,More,Increasing,8,4,3.9999999999999987
ratingclicks_within,41008,17,Liking,Low,1.404097222,0.844,Female,21,More,More,Increasing,8,4,3.9999999999999987
ratingclicks_within,41008,18,Liking,Medium,3.575717593,2.6756,Female,21,More,More,Increasing,8,4,3.9999999999999987
ratingclicks_within,41399,1,Liking,Low,1.657935766,6.546,Female,21,More,More,Increasing,7,3.5,3.4999999999999996
ratingclicks_within,41399,2,Liking,Medium,3.788275647,4.471,Female,21,More,More,Increasing,7,3.5,3.4999999999999996
ratingclicks_within,41399,3,Liking,High,3.528843156,3.054,Female,21,More,More,Increasing,7,3.5,3.4999999999999996
ratingclicks_within,41399,4,Liking,Low,5,1.838,Female,21,More,More,Increasing,7,3.5,3.4999999999999996
ratingclicks_within,41399,5,Liking,High,2.585905831,2.219,Female,21,More,More,Increasing,7,3.5,3.4999999999999996
ratingclicks_within,41399,6,Liking,Medium,4.396944185,3.605,Female,21,More,More,Increasing,7,3.5,3.4999999999999996
ratingclicks_within,41399,7,Liking,High,4.337075148,2.337,Female,21,More,More,Increasing,7,3.5,3.4999999999999996
ratingclicks_within,41399,8,Liking,Medium,2.995010914,2.037,Female,21,More,More,Increasing,7,3.5,3.4999999999999996
ratingclicks_within,41399,9,Liking,Low,1.997193639,1.973,Female,21,More,More,Increasing,7,3.5,3.4999999999999996
ratingclicks_within,41399,10,Value,Medium,1.079201746,5.803,Female,21,More,More,Increasing,7,3.5,3.4999999999999996
ratingclicks_within,41399,11,Value,Low,3.528843156,12.156,Female,21,More,More,Increasing,7,3.5,3.4999999999999996
ratingclicks_within,41399,12,Value,High,5,4.441,Female,21,More,More,Increasing,7,3.5,3.4999999999999996
ratingclicks_within,41399,13,Value,Medium,4.042719052,12.604,Female,21,More,More,Increasing,7,3.5,3.4999999999999996
ratingclicks_within,41399,14,Value,High,1.114125351,4.653,Female,21,More,More,Increasing,7,3.5,3.4999999999999996
ratingclicks_within,41399,15,Value,Low,4.985656377,1.438,Female,21,More,More,Increasing,7,3.5,3.4999999999999996
ratingclicks_within,41399,16,Value,High,5,3.872,Female,21,More,More,Increasing,7,3.5,3.4999999999999996
ratingclicks_within,41399,17,Value,Low,1.977237293,3.771,Female,21,More,More,Increasing,7,3.5,3.4999999999999996
ratingclicks_within,41399,18,Value,Medium,2.077019021,3.588,Female,21,More,More,Increasing,7,3.5,3.4999999999999996
ratingclicks_within,41409,1,Value,Low,1.996875,4.8463,Female,21,More,More,Mixed,1,0.5,0.5000000000000001
ratingclicks_within,41409,2,Value,Medium,2.983842593,9.2968,Female,21,More,More,Mixed,1,0.5,0.5000000000000001
ratingclicks_within,41409,3,Value,High,1.006828704,3.5841,Female,21,More,More,Mixed,1,0.5,0.5000000000000001
ratingclicks_within,41409,4,Value,Low,2.037407407,6.6787,Female,21,More,More,Mixed,1,0.5,0.5000000000000001
ratingclicks_within,41409,5,Value,High,1.954699074,9.011,Female,21,More,More,Mixed,1,0.5,0.5000000000000001
ratingclicks_within,41409,6,Value,Medium,2.033842593,3.8581,Female,21,More,More,Mixed,1,0.5,0.5000000000000001
ratingclicks_within,41409,7,Value,High,2.001712963,5.0152,Female,21,More,More,Mixed,1,0.5,0.5000000000000001
ratingclicks_within,41409,8,Value,Medium,1.512569444,1.9094,Female,21,More,More,Mixed,1,0.5,0.5000000000000001
ratingclicks_within,41409,9,Value,Low,2.332662037,5.2449,Female,21,More,More,Mixed,1,0.5,0.5000000000000001
ratingclicks_within,41409,10,Liking,Medium,1.699907407,3.456,Female,21,More,More,Mixed,1,0.5,0.5000000000000001
ratingclicks_within,41409,11,Liking,Low,2.783773148,3.729,Female,21,More,More,Mixed,1,0.5,0.5000000000000001
ratingclicks_within,41409,12,Liking,High,1.472361111,2.5243,Female,21,More,More,Mixed,1,0.5,0.5000000000000001
ratingclicks_within,41409,13,Liking,Medium,2.006712963,4.897,Female,21,More,More,Mixed,1,0.5,0.5000000000000001
ratingclicks_within,41409,14,Liking,High,1.655833333,9.4455,Female,21,More,More,Mixed,1,0.5,0.5000000000000001
ratingclicks_within,41409,15,Liking,Low,3.526898148,4.2612,Female,21,More,More,Mixed,1,0.5,0.5000000000000001
ratingclicks_within,41409,16,Liking,High,2.434027778,5.8444,Female,21,More,More,Mixed,1,0.5,0.5000000000000001
ratingclicks_within,41409,17,Liking,Low,3.572199074,3.865,Female,21,More,More,Mixed,1,0.5,0.5000000000000001
ratingclicks_within,41409,18,Liking,Medium,3.475509259,3.0589,Female,21,More,More,Mixed,1,0.5,0.5000000000000001
ratingclicks_within,41425,1,Value,Low,1.972839732,4.8987,Female,21,No Difference,Less,Mixed,4,2,2.0000000000000004
ratingclicks_within,41425,2,Value,Medium,2.451851927,5.1383,Female,21,No Difference,Less,Mixed,4,2,2.0000000000000004
ratingclicks_within,41425,3,Value,High,4.071605164,1.6668,Female,21,No Difference,Less,Mixed,4,2,2.0000000000000004
ratingclicks_within,41425,4,Value,Low,1.251851965,1.3476,Female,21,No Difference,Less,Mixed,4,2,2.0000000000000004
ratingclicks_within,41425,5,Value,High,3.434568052,1.4801,Female,21,No Difference,Less,Mixed,4,2,2.0000000000000004
ratingclicks_within,41425,6,Value,Medium,2.501234643,3.5848,Female,21,No Difference,Less,Mixed,4,2,2.0000000000000004
ratingclicks_within,41425,7,Value,High,3.834567977,2.9558,Female,21,No Difference,Less,Mixed,4,2,2.0000000000000004
ratingclicks_within,41425,8,Value,Medium,2.061728395,3.6685,Female,21,No Difference,Less,Mixed,4,2,2.0000000000000004
ratingclicks_within,41425,9,Value,Low,1.735802544,6.8548,Female,21,No Difference,Less,Mixed,4,2,2.0000000000000004
ratingclicks_within,41425,10,Liking,Medium,2.95555548,8.8655,Female,21,No Difference,Less,Mixed,4,2,2.0000000000000004
ratingclicks_within,41425,11,Liking,Low,2.871605014,47.6449,Female,21,No Difference,Less,Mixed,4,2,2.0000000000000004
ratingclicks_within,41425,12,Liking,High,3.82962978,4.6768,Female,21,No Difference,Less,Mixed,4,2,2.0000000000000004
ratingclicks_within,41425,13,Liking,Medium,3.395061728,1.8298,Female,21,No Difference,Less,Mixed,4,2,2.0000000000000004
ratingclicks_within,41425,14,Liking,High,3,8.5745,Female,21,No Difference,Less,Mixed,4,2,2.0000000000000004
ratingclicks_within,41425,15,Liking,Low,3.276543135,2.4826,Female,21,No Difference,Less,Mixed,4,2,2.0000000000000004
ratingclicks_within,41425,16,Liking,High,3.38024714,2.1868,Female,21,No Difference,Less,Mixed,4,2,2.0000000000000004
ratingclicks_within,41425,17,Liking,Low,3.311111262,1.1092,Female,21,No Difference,Less,Mixed,4,2,2.0000000000000004
ratingclicks_within,41425,18,Liking,Medium,3.41481489,1.5538,Female,21,No Difference,Less,Mixed,4,2,2.0000000000000004
ratingclicks_within,41500,1,Value,Low,2.412345604,5.5201,Female,21,More,More,Decreasing,-6,-3,-3.0000000000000027
ratingclicks_within,41500,2,Value,Medium,3.498765357,4.352,Female,21,More,More,Decreasing,-6,-3,-3.0000000000000027
ratingclicks_within,41500,3,Value,High,3.99753109,7.5135,Female,21,More,More,Decreasing,-6,-3,-3.0000000000000027
ratingclicks_within,41500,4,Value,Low,2.471605089,2.6222,Female,21,More,More,Decreasing,-6,-3,-3.0000000000000027
ratingclicks_within,41500,5,Value,High,3.958024767,2.6073,Female,21,More,More,Decreasing,-6,-3,-3.0000000000000027
ratingclicks_within,41500,6,Value,Medium,2.323456941,3.9707,Female,21,More,More,Decreasing,-6,-3,-3.0000000000000027
ratingclicks_within,41500,7,Value,High,3.795061653,4.5348,Female,21,More,More,Decreasing,-6,-3,-3.0000000000000027
ratingclicks_within,41500,8,Value,Medium,3.004938196,2.5461,Female,21,More,More,Decreasing,-6,-3,-3.0000000000000027
ratingclicks_within,41500,9,Value,Low,2.417284177,3.6501,Female,21,More,More,Decreasing,-6,-3,-3.0000000000000027
ratingclicks_within,41500,10,Liking,Medium,2.911111337,15.4999,Female,21,More,More,Decreasing,-6,-3,-3.0000000000000027
ratingclicks_within,41500,11,Liking,Low,3.597530789,3.4006,Female,21,More,More,Decreasing,-6,-3,-3.0000000000000027
ratingclicks_within,41500,12,Liking,High,3.745678937,3.9859,Female,21,More,More,Decreasing,-6,-3,-3.0000000000000027
ratingclicks_within,41500,13,Liking,Medium,4.106172915,3.5181,Female,21,More,More,Decreasing,-6,-3,-3.0000000000000027
ratingclicks_within,41500,14,Liking,High,2.234567901,7.482,Female,21,More,More,Decreasing,-6,-3,-3.0000000000000027
ratingclicks_within,41500,15,Liking,Low,2.565432325,4.7688,Female,21,More,More,Decreasing,-6,-3,-3.0000000000000027
ratingclicks_within,41500,16,Liking,High,1.82962978,3.7705,Female,21,More,More,Decreasing,-6,-3,-3.0000000000000027
ratingclicks_within,41500,17,Liking,Low,4.333333333,3.5209,Female,21,More,More,Decreasing,-6,-3,-3.0000000000000027
ratingclicks_within,41500,18,Liking,Medium,2.62962963,6.7976,Female,21,More,More,Decreasing,-6,-3,-3.0000000000000027
ratingclicks_within,41515,1,Value,Low,2.006689815,8.5327,Female,21,Less,More,Decreasing,-11,-5.5,-5.500000000000005
ratingclicks_within,41515,2,Value,Medium,3.011782407,5.5519,Female,21,Less,More,Decreasing,-11,-5.5,-5.500000000000005
ratingclicks_within,41515,3,Value,High,2.988425926,7.6623,Female,21,Less,More,Decreasing,-11,-5.5,-5.500000000000005
ratingclicks_within,41515,4,Value,Low,1.972546296,3.944,Female,21,Less,More,Decreasing,-11,-5.5,-5.500000000000005
ratingclicks_within,41515,5,Value,High,3.006180556,4.6099,Female,21,Less,More,Decreasing,-11,-5.5,-5.500000000000005
ratingclicks_within,41515,6,Value,Medium,1.232777778,3.0269,Female,21,Less,More,Decreasing,-11,-5.5,-5.500000000000005
ratingclicks_within,41515,7,Value,High,1.404212963,3.2212,Female,21,Less,More,Decreasing,-11,-5.5,-5.500000000000005
ratingclicks_within,41515,8,Value,Medium,1.08712963,2.4132,Female,21,Less,More,Decreasing,-11,-5.5,-5.500000000000005
ratingclicks_within,41515,9,Value,Low,3.006273148,3.8301,Female,21,Less,More,Decreasing,-11,-5.5,-5.500000000000005
ratingclicks_within,41515,10,Liking,Medium,4.049375,3.583,Female,21,Less,More,Decreasing,-11,-5.5,-5.500000000000005
ratingclicks_within,41515,11,Liking,Low,3.395300926,4.0458,Female,21,Less,More,Decreasing,-11,-5.5,-5.500000000000005
ratingclicks_within,41515,12,Liking,High,1.576921296,4.9119,Female,21,Less,More,Decreasing,-11,-5.5,-5.500000000000005
ratingclicks_within,41515,13,Liking,Medium,3.191527778,3.4947,Female,21,Less,More,Decreasing,-11,-5.5,-5.500000000000005
ratingclicks_within,41515,14,Liking,High,1.491365741,2.3526,Female,21,Less,More,Decreasing,-11,-5.5,-5.500000000000005
ratingclicks_within,41515,15,Liking,Low,2.957037037,1.6143,Female,21,Less,More,Decreasing,-11,-5.5,-5.500000000000005
ratingclicks_within,41515,16,Liking,High,3.573356481,2.0848,Female,21,Less,More,Decreasing,-11,-5.5,-5.500000000000005
ratingclicks_within,41515,17,Liking,Low,4.268194444,1.6484,Female,21,Less,More,Decreasing,-11,-5.5,-5.500000000000005
ratingclicks_within,41515,18,Liking,Medium,3.720648148,3.7792,Female,21,Less,More,Decreasing,-11,-5.5,-5.500000000000005
ratingclicks_within,41798,1,Liking,Low,2.499818248,4.844,Female,21,No Difference,No Difference,Mixed,6,3,3.0000000000000018
ratingclicks_within,41798,2,Liking,Medium,2.866230462,4.639,Female,21,No Difference,No Difference,Mixed,6,3,3.0000000000000018
ratingclicks_within,41798,3,Liking,High,2.866230462,3.489,Female,21,No Difference,No Difference,Mixed,6,3,3.0000000000000018
ratingclicks_within,41798,4,Liking,Low,3.982915304,2.653,Female,21,No Difference,No Difference,Mixed,6,3,3.0000000000000018
ratingclicks_within,41798,5,Liking,High,2.389312977,2.138,Female,21,No Difference,No Difference,Mixed,6,3,3.0000000000000018
ratingclicks_within,41798,6,Liking,Medium,4.296982915,4.518,Female,21,No Difference,No Difference,Mixed,6,3,3.0000000000000018
ratingclicks_within,41798,7,Liking,High,4.459832788,2.833,Female,21,No Difference,No Difference,Mixed,6,3,3.0000000000000018
ratingclicks_within,41798,8,Liking,Medium,4.23300618,4.535,Female,21,No Difference,No Difference,Mixed,6,3,3.0000000000000018
ratingclicks_within,41798,9,Liking,Low,4.448200654,1.601,Female,21,No Difference,No Difference,Mixed,6,3,3.0000000000000018
ratingclicks_within,41798,10,Value,Medium,2.063613232,5.389,Female,21,No Difference,No Difference,Mixed,6,3,3.0000000000000018
ratingclicks_within,41798,11,Value,Low,1.609960015,2.471,Female,21,No Difference,No Difference,Mixed,6,3,3.0000000000000018
ratingclicks_within,41798,12,Value,High,4.105052708,2.422,Female,21,No Difference,No Difference,Mixed,6,3,3.0000000000000018
ratingclicks_within,41798,13,Value,Medium,2.418393312,2.665,Female,21,No Difference,No Difference,Mixed,6,3,3.0000000000000018
ratingclicks_within,41798,14,Value,High,2.715012723,3.263,Female,21,No Difference,No Difference,Mixed,6,3,3.0000000000000018
ratingclicks_within,41798,15,Value,Low,4.459832788,1.5,Female,21,No Difference,No Difference,Mixed,6,3,3.0000000000000018
ratingclicks_within,41798,16,Value,High,3.378044348,4.255,Female,21,No Difference,No Difference,Mixed,6,3,3.0000000000000018
ratingclicks_within,41798,17,Value,Low,3.081424936,3.521,Female,21,No Difference,No Difference,Mixed,6,3,3.0000000000000018
ratingclicks_within,41798,18,Value,Medium,2.214830971,2.182,Female,21,No Difference,No Difference,Mixed,6,3,3.0000000000000018
ratingclicks_within,42006,1,Value,Low,2.026315789,7.0212,Female,21,No Difference,No Difference,Mixed,-4,-2,-2.0000000000000027
ratingclicks_within,42006,2,Value,Medium,3.973684211,2.9227,Female,21,No Difference,No Difference,Mixed,-4,-2,-2.0000000000000027
ratingclicks_within,42006,3,Value,High,5,22.2935,Female,21,No Difference,No Difference,Mixed,-4,-2,-2.0000000000000027
ratingclicks_within,42006,4,Value,Low,1,1.0953,Female,21,No Difference,No Difference,Mixed,-4,-2,-2.0000000000000027
ratingclicks_within,42006,5,Value,High,2.970760234,3.0237,Female,21,No Difference,No Difference,Mixed,-4,-2,-2.0000000000000027
ratingclicks_within,42006,6,Value,Medium,2.631578947,2.2989,Female,21,No Difference,No Difference,Mixed,-4,-2,-2.0000000000000027
ratingclicks_within,42006,7,Value,High,3.552631579,3.7208,Female,21,No Difference,No Difference,Mixed,-4,-2,-2.0000000000000027
ratingclicks_within,42006,8,Value,Medium,2.938596491,2.8497,Female,21,No Difference,No Difference,Mixed,-4,-2,-2.0000000000000027
ratingclicks_within,42006,9,Value,Low,1.187134503,3.2847,Female,21,No Difference,No Difference,Mixed,-4,-2,-2.0000000000000027
ratingclicks_within,42006,10,Liking,Medium,2.032163743,5.5498,Female,21,No Difference,No Difference,Mixed,-4,-2,-2.0000000000000027
ratingclicks_within,42006,11,Liking,Low,3.900584795,2.4428,Female,21,No Difference,No Difference,Mixed,-4,-2,-2.0000000000000027
ratingclicks_within,42006,12,Liking,High,1,3.4288,Female,21,No Difference,No Difference,Mixed,-4,-2,-2.0000000000000027
ratingclicks_within,42006,13,Liking,Medium,2.263157895,9.8538,Female,21,No Difference,No Difference,Mixed,-4,-2,-2.0000000000000027
ratingclicks_within,42006,14,Liking,High,2.035087719,4.1189,Female,21,No Difference,No Difference,Mixed,-4,-2,-2.0000000000000027
ratingclicks_within,42006,15,Liking,Low,2.839181287,2.5842,Female,21,No Difference,No Difference,Mixed,-4,-2,-2.0000000000000027
ratingclicks_within,42006,16,Liking,High,2.362573099,1.5925,Female,21,No Difference,No Difference,Mixed,-4,-2,-2.0000000000000027
ratingclicks_within,42006,17,Liking,Low,4.441520468,0.9159,Female,21,No Difference,No Difference,Mixed,-4,-2,-2.0000000000000027
ratingclicks_within,42006,18,Liking,Medium,3.766081871,1.6152,Female,21,No Difference,No Difference,Mixed,-4,-2,-2.0000000000000027
ratingclicks_within,42139,1,Liking,Low,4.013287037,7.6354,Female,21,Less,More,Increasing,9,4.5,4.500000000000001
ratingclicks_within,42139,2,Liking,Medium,3.755856481,9.8645,Female,21,Less,More,Increasing,9,4.5,4.500000000000001
ratingclicks_within,42139,3,Liking,High,2.986111111,3.4933,Female,21,Less,More,Increasing,9,4.5,4.500000000000001
ratingclicks_within,42139,4,Liking,Low,4.491296296,7.0444,Female,21,Less,More,Increasing,9,4.5,4.500000000000001
ratingclicks_within,42139,5,Liking,High,3.477430556,3.2288,Female,21,Less,More,Increasing,9,4.5,4.500000000000001
ratingclicks_within,42139,6,Liking,Medium,4.470671296,5.5463,Female,21,Less,More,Increasing,9,4.5,4.500000000000001
ratingclicks_within,42139,7,Liking,High,3.450092593,8.2781,Female,21,Less,More,Increasing,9,4.5,4.500000000000001
ratingclicks_within,42139,8,Liking,Medium,3.497523148,5.4296,Female,21,Less,More,Increasing,9,4.5,4.500000000000001
ratingclicks_within,42139,9,Liking,Low,5,1.6285,Female,21,Less,More,Increasing,9,4.5,4.500000000000001
ratingclicks_within,42139,10,Value,Medium,4.499236111,9.3116,Female,21,Less,More,Increasing,9,4.5,4.500000000000001
ratingclicks_within,42139,11,Value,Low,2.527106481,2.5644,Female,21,Less,More,Increasing,9,4.5,4.500000000000001
ratingclicks_within,42139,12,Value,High,5,4.477,Female,21,Less,More,Increasing,9,4.5,4.500000000000001
ratingclicks_within,42139,13,Value,Medium,2.985393519,2.1603,Female,21,Less,More,Increasing,9,4.5,4.500000000000001
ratingclicks_within,42139,14,Value,High,4.01037037,4.0448,Female,21,Less,More,Increasing,9,4.5,4.500000000000001
ratingclicks_within,42139,15,Value,Low,1.987314815,2.0446,Female,21,Less,More,Increasing,9,4.5,4.500000000000001
ratingclicks_within,42139,16,Value,High,4.026203704,2.6958,Female,21,Less,More,Increasing,9,4.5,4.500000000000001
ratingclicks_within,42139,17,Value,Low,1.525694444,1.9793,Female,21,Less,More,Increasing,9,4.5,4.500000000000001
ratingclicks_within,42139,18,Value,Medium,3.031388889,4.7288,Female,21,Less,More,Increasing,9,4.5,4.500000000000001
ratingclicks_within,42215,1,Value,Low,2.978464674,3.0086,Female,21,More,More,Increasing,8,4,4.000000000000001
ratingclicks_within,42215,2,Value,Medium,3.988134058,2.5439,Female,21,More,More,Increasing,8,4,4.000000000000001
ratingclicks_within,42215,3,Value,High,3.975158514,1.8924,Female,21,More,More,Increasing,8,4,4.000000000000001
ratingclicks_within,42215,4,Value,Low,2.971671196,2.3776,Female,21,More,More,Increasing,8,4,4.000000000000001
ratingclicks_within,42215,5,Value,High,3.416576087,2.1768,Female,21,More,More,Increasing,8,4,4.000000000000001
ratingclicks_within,42215,6,Value,Medium,2.425249094,1.8612,Female,21,More,More,Increasing,8,4,4.000000000000001
ratingclicks_within,42215,7,Value,High,3.34517663,1.344,Female,21,More,More,Increasing,8,4,4.000000000000001
ratingclicks_within,42215,8,Value,Medium,3.46705163,1.2788,Female,21,More,More,Increasing,8,4,4.000000000000001
ratingclicks_within,42215,9,Value,Low,2.275384964,2.044,Female,21,More,More,Increasing,8,4,4.000000000000001
ratingclicks_within,42215,10,Liking,Medium,2.324071558,3.8236,Female,21,More,More,Increasing,8,4,4.000000000000001
ratingclicks_within,42215,11,Liking,Low,3.190172101,1.2606,Female,21,More,More,Increasing,8,4,4.000000000000001
ratingclicks_within,42215,12,Liking,High,3.619678442,2.5112,Female,21,More,More,Increasing,8,4,4.000000000000001
ratingclicks_within,42215,13,Liking,Medium,3.134216486,1.9944,Female,21,More,More,Increasing,8,4,4.000000000000001
ratingclicks_within,42215,14,Liking,High,2.220335145,1.4595,Female,21,More,More,Increasing,8,4,4.000000000000001
ratingclicks_within,42215,15,Liking,Low,3.767663043,1.3113,Female,21,More,More,Increasing,8,4,4.000000000000001
ratingclicks_within,42215,16,Liking,High,3.686820652,1.9795,Female,21,More,More,Increasing,8,4,4.000000000000001
ratingclicks_within,42215,17,Liking,Low,4.251222826,1.8104,Female,21,More,More,Increasing,8,4,4.000000000000001
ratingclicks_within,42215,18,Liking,Medium,3.470923913,1.3117,Female,21,More,More,Increasing,8,4,4.000000000000001
ratingclicks_within,42227,1,Liking,Low,3.768564815,3.1423,Female,21,Less,More,Mixed,1,0.5,0.49999999999999734
ratingclicks_within,42227,2,Liking,Medium,2.596759259,2.5115,Female,21,Less,More,Mixed,1,0.5,0.49999999999999734
ratingclicks_within,42227,3,Liking,High,2.316273148,3.9792,Female,21,Less,More,Mixed,1,0.5,0.49999999999999734
ratingclicks_within,42227,4,Liking,Low,3.403865741,1.2512,Female,21,Less,More,Mixed,1,0.5,0.49999999999999734
ratingclicks_within,42227,5,Liking,High,3.516226852,3.2133,Female,21,Less,More,Mixed,1,0.5,0.49999999999999734
ratingclicks_within,42227,6,Liking,Medium,2.953449074,5.0446,Female,21,Less,More,Mixed,1,0.5,0.49999999999999734
ratingclicks_within,42227,7,Liking,High,2.37275463,16.327,Female,21,Less,More,Mixed,1,0.5,0.49999999999999734
ratingclicks_within,42227,8,Liking,Medium,3.710902778,2.1613,Female,21,Less,More,Mixed,1,0.5,0.49999999999999734
ratingclicks_within,42227,9,Liking,Low,3.478101852,2.7887,Female,21,Less,More,Mixed,1,0.5,0.49999999999999734
ratingclicks_within,42227,10,Value,Medium,1.883634259,4.5532,Female,21,Less,More,Mixed,1,0.5,0.49999999999999734
ratingclicks_within,42227,11,Value,Low,2.428611111,2.4115,Female,21,Less,More,Mixed,1,0.5,0.49999999999999734
ratingclicks_within,42227,12,Value,High,2.628958333,2.518,Female,21,Less,More,Mixed,1,0.5,0.49999999999999734
ratingclicks_within,42227,13,Value,Medium,3.149074074,1.6522,Female,21,Less,More,Mixed,1,0.5,0.49999999999999734
ratingclicks_within,42227,14,Value,High,3.677337963,1.5293,Female,21,Less,More,Mixed,1,0.5,0.49999999999999734
ratingclicks_within,42227,15,Value,Low,2.821435185,2.7372,Female,21,Less,More,Mixed,1,0.5,0.49999999999999734
ratingclicks_within,42227,16,Value,High,3.258634259,6.5711,Female,21,Less,More,Mixed,1,0.5,0.49999999999999734
ratingclicks_within,42227,17,Value,Low,2.818449074,4.2367,Female,21,Less,More,Mixed,1,0.5,0.49999999999999734
ratingclicks_within,42227,18,Value,Medium,2.621481481,7.9066,Female,21,Less,More,Mixed,1,0.5,0.49999999999999734
ratingclicks_within,42242,1,Value,Low,2.62952774,4.73,Female,21,Less,More,Decreasing,-1,-0.5,-0.5000000000000034
ratingclicks_within,42242,2,Value,Medium,3.348464007,9.25,Female,21,Less,More,Decreasing,-1,-0.5,-0.5000000000000034
ratingclicks_within,42242,3,Value,High,3.179734067,4.1,Female,21,Less,More,Decreasing,-1,-0.5,-0.5000000000000034
ratingclicks_within,42242,4,Value,Low,2.5781751490000002,4.4,Female,21,Less,More,Decreasing,-1,-0.5,-0.5000000000000034
ratingclicks_within,42242,5,Value,High,4.140761119,2.548,Female,21,Less,More,Decreasing,-1,-0.5,-0.5000000000000034
ratingclicks_within,42242,6,Value,Medium,2.96698762,2.63,Female,21,Less,More,Decreasing,-1,-0.5,-0.5000000000000034
ratingclicks_within,42242,7,Value,High,3.443833104,12.59,Female,21,Less,More,Decreasing,-1,-0.5,-0.5000000000000034
ratingclicks_within,42242,8,Value,Medium,3.795965154,2.468,Female,21,Less,More,Decreasing,-1,-0.5,-0.5000000000000034
ratingclicks_within,42242,9,Value,Low,3.627235213,7.634,Female,21,Less,More,Decreasing,-1,-0.5,-0.5000000000000034
ratingclicks_within,42242,10,Liking,Medium,3.363136176,5.586,Female,21,Less,More,Decreasing,-1,-0.5,-0.5000000000000034
ratingclicks_within,42242,11,Liking,Low,3.627235213,8.54,Female,21,Less,More,Decreasing,-1,-0.5,-0.5000000000000034
ratingclicks_within,42242,12,Liking,High,3.546538285,13.475,Female,21,Less,More,Decreasing,-1,-0.5,-0.5000000000000034
ratingclicks_within,42242,13,Liking,Medium,2.644199908,7.07,Female,21,Less,More,Decreasing,-1,-0.5,-0.5000000000000034
ratingclicks_within,42242,14,Liking,High,2.922971114,11.597,Female,21,Less,More,Decreasing,-1,-0.5,-0.5000000000000034
ratingclicks_within,42242,15,Liking,Low,2.739569005,4.767,Female,21,Less,More,Decreasing,-1,-0.5,-0.5000000000000034
ratingclicks_within,42242,16,Liking,High,2.592847318,1.221,Female,21,Less,More,Decreasing,-1,-0.5,-0.5000000000000034
ratingclicks_within,42242,17,Liking,Low,2.959651536,13.509,Female,21,Less,More,Decreasing,-1,-0.5,-0.5000000000000034
ratingclicks_within,42242,18,Liking,Medium,3.157725814,8.094,Female,21,Less,More,Decreasing,-1,-0.5,-0.5000000000000034
ratingclicks_within,42327,1,Value,Low,2.036171498,9.9696,Female,22,No Difference,More,Mixed,5,2.5,2.4999999999999973
ratingclicks_within,42327,2,Value,Medium,2.823158213,8.4125,Female,22,No Difference,More,Mixed,5,2.5,2.4999999999999973
ratingclicks_within,42327,3,Value,High,4.604438406,1.526,Female,22,No Difference,More,Mixed,5,2.5,2.4999999999999973
ratingclicks_within,42327,4,Value,Low,2.387318841,2.3965,Female,22,No Difference,More,Mixed,5,2.5,2.4999999999999973
ratingclicks_within,42327,5,Value,High,3.615881643,3.1473,Female,22,No Difference,More,Mixed,5,2.5,2.4999999999999973
ratingclicks_within,42327,6,Value,Medium,3.619504831,4.1462,Female,22,No Difference,More,Mixed,5,2.5,2.4999999999999973
ratingclicks_within,42327,7,Value,High,3.629710145,1.8122,Female,22,No Difference,More,Mixed,5,2.5,2.4999999999999973
ratingclicks_within,42327,8,Value,Medium,2.590700483,1.2844,Female,22,No Difference,More,Mixed,5,2.5,2.4999999999999973
ratingclicks_within,42327,9,Value,Low,1.832246377,1.2469,Female,22,No Difference,More,Mixed,5,2.5,2.4999999999999973
ratingclicks_within,42327,10,Liking,Medium,2.359993961,6.6847,Female,22,No Difference,More,Mixed,5,2.5,2.4999999999999973
ratingclicks_within,42327,11,Liking,Low,3.403140097,1.9504,Female,22,No Difference,More,Mixed,5,2.5,2.4999999999999973
ratingclicks_within,42327,12,Liking,High,4.68236715,3.6297,Female,22,No Difference,More,Mixed,5,2.5,2.4999999999999973
ratingclicks_within,42327,13,Liking,Medium,4.379649758,1.7284,Female,22,No Difference,More,Mixed,5,2.5,2.4999999999999973
ratingclicks_within,42327,14,Liking,High,3.697886473,1.5628,Female,22,No Difference,More,Mixed,5,2.5,2.4999999999999973
ratingclicks_within,42327,15,Liking,Low,2.986865942,3.8788,Female,22,No Difference,More,Mixed,5,2.5,2.4999999999999973
ratingclicks_within,42327,16,Liking,High,4.446195652,1.446,Female,22,No Difference,More,Mixed,5,2.5,2.4999999999999973
ratingclicks_within,42327,17,Liking,Low,1.374335749,2.997,Female,22,No Difference,More,Mixed,5,2.5,2.4999999999999973
ratingclicks_within,42327,18,Liking,Medium,2.926751208,4.3101,Female,22,No Difference,More,Mixed,5,2.5,2.4999999999999973
ratingclicks_within,42356,1,Value,Low,2.024035494,7.8015,Female,21,No Difference,More,Increasing,1,0.5,0.49999999999999967
ratingclicks_within,42356,2,Value,Medium,4.075366512,6.6097,Female,21,No Difference,More,Increasing,1,0.5,0.49999999999999967
ratingclicks_within,42356,3,Value,High,1.99211034,2.776,Female,21,No Difference,More,Increasing,1,0.5,0.49999999999999967
ratingclicks_within,42356,4,Value,Low,1,1.3529,Female,21,No Difference,More,Increasing,1,0.5,0.49999999999999967
ratingclicks_within,42356,5,Value,High,3.989718364,1.8864,Female,21,No Difference,More,Increasing,1,0.5,0.49999999999999967
ratingclicks_within,42356,6,Value,Medium,1.534182099,1.991,Female,21,No Difference,More,Increasing,1,0.5,0.49999999999999967
ratingclicks_within,42356,7,Value,High,2.559780093,2.9863,Female,21,No Difference,More,Increasing,1,0.5,0.49999999999999967
ratingclicks_within,42356,8,Value,Medium,1.471026235,2.2261,Female,21,No Difference,More,Increasing,1,0.5,0.49999999999999967
ratingclicks_within,42356,9,Value,Low,1,1.0822,Female,21,No Difference,More,Increasing,1,0.5,0.49999999999999967
ratingclicks_within,42356,10,Liking,Medium,3.02652392,3.8729,Female,21,No Difference,More,Increasing,1,0.5,0.49999999999999967
ratingclicks_within,42356,11,Liking,Low,3.404340278,4.1956,Female,21,No Difference,More,Increasing,1,0.5,0.49999999999999967
ratingclicks_within,42356,12,Liking,High,2.511844136,2.0715,Female,21,No Difference,More,Increasing,1,0.5,0.49999999999999967
ratingclicks_within,42356,13,Liking,Medium,3.986130401,0.6016,Female,21,No Difference,More,Increasing,1,0.5,0.49999999999999967
ratingclicks_within,42356,14,Liking,High,1,2.7551,Female,21,No Difference,More,Increasing,1,0.5,0.49999999999999967
ratingclicks_within,42356,15,Liking,Low,4.68908179,1.2182,Female,21,No Difference,More,Increasing,1,0.5,0.49999999999999967
ratingclicks_within,42356,16,Liking,High,3.05461034,0.728,Female,21,No Difference,More,Increasing,1,0.5,0.49999999999999967
ratingclicks_within,42356,17,Liking,Low,4.935243056,1.1079,Female,21,No Difference,More,Increasing,1,0.5,0.49999999999999967
ratingclicks_within,42356,18,Liking,Medium,3.00941358,3.2217,Female,21,No Difference,More,Increasing,1,0.5,0.49999999999999967
ratingclicks_within,42358,1,Value,Low,1,8.6508,Other,20,More,Less,Decreasing,-1,-0.5,-0.5000000000000019
ratingclicks_within,42358,2,Value,Medium,1.983402778,5.2615,Other,20,More,Less,Decreasing,-1,-0.5,-0.5000000000000019
ratingclicks_within,42358,3,Value,High,1.661296296,8.4471,Other,20,More,Less,Decreasing,-1,-0.5,-0.5000000000000019
ratingclicks_within,42358,4,Value,Low,4.952384259,8.379,Other,20,More,Less,Decreasing,-1,-0.5,-0.5000000000000019
ratingclicks_within,42358,5,Value,High,2.112638889,3.5959,Other,20,More,Less,Decreasing,-1,-0.5,-0.5000000000000019
ratingclicks_within,42358,6,Value,Medium,3.018356481,6.0458,Other,20,More,Less,Decreasing,-1,-0.5,-0.5000000000000019
ratingclicks_within,42358,7,Value,High,3.906666667,3.879,Other,20,More,Less,Decreasing,-1,-0.5,-0.5000000000000019
ratingclicks_within,42358,8,Value,Medium,2.890092593,6.7623,Other,20,More,Less,Decreasing,-1,-0.5,-0.5000000000000019
ratingclicks_within,42358,9,Value,Low,1.983912037,5.3309,Other,20,More,Less,Decreasing,-1,-0.5,-0.5000000000000019
ratingclicks_within,42358,10,Liking,Medium,1.03375,4.0597,Other,20,More,Less,Decreasing,-1,-0.5,-0.5000000000000019
ratingclicks_within,42358,11,Liking,Low,3.020439815,2.5472,Other,20,More,Less,Decreasing,-1,-0.5,-0.5000000000000019
ratingclicks_within,42358,12,Liking,High,2.171782407,8.3948,Other,20,More,Less,Decreasing,-1,-0.5,-0.5000000000000019
ratingclicks_within,42358,13,Liking,Medium,1.004837963,4.4938,Other,20,More,Less,Decreasing,-1,-0.5,-0.5000000000000019
ratingclicks_within,42358,14,Liking,High,1.258217593,5.5285,Other,20,More,Less,Decreasing,-1,-0.5,-0.5000000000000019
ratingclicks_within,42358,15,Liking,Low,1,6.2948,Other,20,More,Less,Decreasing,-1,-0.5,-0.5000000000000019
ratingclicks_within,42358,16,Liking,High,1.023472222,2.428,Other,20,More,Less,Decreasing,-1,-0.5,-0.5000000000000019
ratingclicks_within,42358,17,Liking,Low,1.018449074,5.0268,Other,20,More,Less,Decreasing,-1,-0.5,-0.5000000000000019
ratingclicks_within,42358,18,Liking,Medium,1,4.578,Other,20,More,Less,Decreasing,-1,-0.5,-0.5000000000000019
ratingclicks_within,42453,1,Liking,Low,2.034305556,3.4001,Female,21,No Difference,More,Mixed,-2,-1,-1.0000000000000018
ratingclicks_within,42453,2,Liking,Medium,3.002731481,1.1663,Female,21,No Difference,More,Mixed,-2,-1,-1.0000000000000018
ratingclicks_within,42453,3,Liking,High,1.605208333,3.2688,Female,21,No Difference,More,Mixed,-2,-1,-1.0000000000000018
ratingclicks_within,42453,4,Liking,Low,3.312824074,2.7533,Female,21,No Difference,More,Mixed,-2,-1,-1.0000000000000018
ratingclicks_within,42453,5,Liking,High,3.085972222,1.5683,Female,21,No Difference,More,Mixed,-2,-1,-1.0000000000000018
ratingclicks_within,42453,6,Liking,Medium,2.177638889,1.1892,Female,21,No Difference,More,Mixed,-2,-1,-1.0000000000000018
ratingclicks_within,42453,7,Liking,High,3.973402778,2.5046,Female,21,No Difference,More,Mixed,-2,-1,-1.0000000000000018
ratingclicks_within,42453,8,Liking,Medium,1.158356481,1.9012,Female,21,No Difference,More,Mixed,-2,-1,-1.0000000000000018
ratingclicks_within,42453,9,Liking,Low,2.371898148,3.0695,Female,21,No Difference,More,Mixed,-2,-1,-1.0000000000000018
ratingclicks_within,42453,10,Value,Medium,2.028912037,8.1834,Female,21,No Difference,More,Mixed,-2,-1,-1.0000000000000018
ratingclicks_within,42453,11,Value,Low,3.570324074,2.9197,Female,21,No Difference,More,Mixed,-2,-1,-1.0000000000000018
ratingclicks_within,42453,12,Value,High,3.710092593,1.4185,Female,21,No Difference,More,Mixed,-2,-1,-1.0000000000000018
ratingclicks_within,42453,13,Value,Medium,1.68337963,1.0372,Female,21,No Difference,More,Mixed,-2,-1,-1.0000000000000018
ratingclicks_within,42453,14,Value,High,2.523912037,1.8436,Female,21,No Difference,More,Mixed,-2,-1,-1.0000000000000018
ratingclicks_within,42453,15,Value,Low,3.625740741,2.6196,Female,21,No Difference,More,Mixed,-2,-1,-1.0000000000000018
ratingclicks_within,42453,16,Value,High,3.950833333,2.2357,Female,21,No Difference,More,Mixed,-2,-1,-1.0000000000000018
ratingclicks_within,42453,17,Value,Low,1.977986111,6.2583,Female,21,No Difference,More,Mixed,-2,-1,-1.0000000000000018
ratingclicks_within,42453,18,Value,Medium,2.786226852,1.4692,Female,21,No Difference,More,Mixed,-2,-1,-1.0000000000000018
ratingclicks_within,42474,1,Liking,Low,1.383402778,2.1691,Female,21,No Difference,More,Mixed,-2,-1,-1.0000000000000016
ratingclicks_within,42474,2,Liking,Medium,1.40162037,2.2947,Female,21,No Difference,More,Mixed,-2,-1,-1.0000000000000016
ratingclicks_within,42474,3,Liking,High,2.127476852,2.0424,Female,21,No Difference,More,Mixed,-2,-1,-1.0000000000000016
ratingclicks_within,42474,4,Liking,Low,4.265023148,3.5781,Female,21,No Difference,More,Mixed,-2,-1,-1.0000000000000016
ratingclicks_within,42474,5,Liking,High,3.771828704,2.7948,Female,21,No Difference,More,Mixed,-2,-1,-1.0000000000000016
ratingclicks_within,42474,6,Liking,Medium,4.476712963,2.2263,Female,21,No Difference,More,Mixed,-2,-1,-1.0000000000000016
ratingclicks_within,42474,7,Liking,High,1.456782407,1.6953,Female,21,No Difference,More,Mixed,-2,-1,-1.0000000000000016
ratingclicks_within,42474,8,Liking,Medium,1.946550926,4.6963,Female,21,No Difference,More,Mixed,-2,-1,-1.0000000000000016
ratingclicks_within,42474,9,Liking,Low,1.675300926,3.3944,Female,21,No Difference,More,Mixed,-2,-1,-1.0000000000000016
ratingclicks_within,42474,10,Value,Medium,1.957222222,6.6776,Female,21,No Difference,More,Mixed,-2,-1,-1.0000000000000016
ratingclicks_within,42474,11,Value,Low,2.286875,1.9617,Female,21,No Difference,More,Mixed,-2,-1,-1.0000000000000016
ratingclicks_within,42474,12,Value,High,3.004328704,3.2948,Female,21,No Difference,More,Mixed,-2,-1,-1.0000000000000016
ratingclicks_within,42474,13,Value,Medium,4.409189815,2.5631,Female,21,No Difference,More,Mixed,-2,-1,-1.0000000000000016
ratingclicks_within,42474,14,Value,High,3.438125,2.1974,Female,21,No Difference,More,Mixed,-2,-1,-1.0000000000000016
ratingclicks_within,42474,15,Value,Low,2.406365741,3.147,Female,21,No Difference,More,Mixed,-2,-1,-1.0000000000000016
ratingclicks_within,42474,16,Value,High,2.368425926,3.1464,Female,21,No Difference,More,Mixed,-2,-1,-1.0000000000000016
ratingclicks_within,42474,17,Value,Low,3.34,2.7967,Female,21,No Difference,More,Mixed,-2,-1,-1.0000000000000016
ratingclicks_within,42474,18,Value,Medium,3.794027778,1.9808,Female,21,No Difference,More,Mixed,-2,-1,-1.0000000000000016
ratingclicks_within,42508,1,Value,Low,1.967313576,5.5836,Female,21,Less,No Difference,Increasing,1,0.5,0.5
ratingclicks_within,42508,2,Value,Medium,2.001869336,3.1585,Female,21,Less,No Difference,Increasing,1,0.5,0.5
ratingclicks_within,42508,3,Value,High,1.982123265,3.0891,Female,21,Less,No Difference,Increasing,1,0.5,0.5
ratingclicks_within,42508,4,Value,Low,1.399615798,2.324,Female,21,Less,No Difference,Increasing,1,0.5,0.5
ratingclicks_within,42508,5,Value,High,1.927821705,1.8214,Female,21,Less,No Difference,Increasing,1,0.5,0.5
ratingclicks_within,42508,6,Value,Medium,1.004695734,2.6767,Female,21,Less,No Difference,Increasing,1,0.5,0.5
ratingclicks_within,42508,7,Value,High,2.989169632,3.5146,Female,21,Less,No Difference,Increasing,1,0.5,0.5
ratingclicks_within,42508,8,Value,Medium,1.78959948,4.7908,Female,21,Less,No Difference,Increasing,1,0.5,0.5
ratingclicks_within,42508,9,Value,Low,1.97225023,3.491,Female,21,Less,No Difference,Increasing,1,0.5,0.5
ratingclicks_within,42508,10,Liking,Medium,2.016678754,3.3381,Female,21,Less,No Difference,Increasing,1,0.5,0.5
ratingclicks_within,42508,11,Liking,Low,1.987059647,1.3876,Female,21,Less,No Difference,Increasing,1,0.5,0.5
ratingclicks_within,42508,12,Liking,High,3.058280609,2.4259,Female,21,Less,No Difference,Increasing,1,0.5,0.5
ratingclicks_within,42508,13,Liking,Medium,3.161947346,2.7891,Female,21,Less,No Difference,Increasing,1,0.5,0.5
ratingclicks_within,42508,14,Liking,High,2.298059316,2.5379,Female,21,Less,No Difference,Increasing,1,0.5,0.5
ratingclicks_within,42508,15,Liking,Low,2.06604366,1.6153,Female,21,Less,No Difference,Increasing,1,0.5,0.5
ratingclicks_within,42508,16,Liking,High,4.0702639,1.1544,Female,21,Less,No Difference,Increasing,1,0.5,0.5
ratingclicks_within,42508,17,Liking,Low,1.562520477,0.6712,Female,21,Less,No Difference,Increasing,1,0.5,0.5
ratingclicks_within,42508,18,Liking,Medium,1.508218917,1.506,Female,21,Less,No Difference,Increasing,1,0.5,0.5
ratingclicks_within,42511,1,Value,Low,3.990547094,10.3218,Female,21,No Difference,More,Increasing,7,3.5,3.500000000000001
ratingclicks_within,42511,2,Value,Medium,4.980477581,5.1145,Female,21,No Difference,More,Increasing,7,3.5,3.500000000000001
ratingclicks_within,42511,3,Value,High,4.933573087,3.7156,Female,21,No Difference,More,Increasing,7,3.5,3.500000000000001
ratingclicks_within,42511,4,Value,Low,2.042779256,2.6968,Female,21,No Difference,More,Increasing,7,3.5,3.500000000000001
ratingclicks_within,42511,5,Value,High,4.997758006,3.2504,Female,21,No Difference,More,Increasing,7,3.5,3.500000000000001
ratingclicks_within,42511,6,Value,Medium,1.946501877,3.2308,Female,21,No Difference,More,Increasing,7,3.5,3.500000000000001
ratingclicks_within,42511,7,Value,High,4.560805859,5.8983,Female,21,No Difference,More,Increasing,7,3.5,3.500000000000001
ratingclicks_within,42511,8,Value,Medium,1.309589124,2.0812,Female,21,No Difference,More,Increasing,7,3.5,3.500000000000001
ratingclicks_within,42511,9,Value,Low,1.018288088,1.7812,Female,21,No Difference,More,Increasing,7,3.5,3.500000000000001
ratingclicks_within,42511,10,Liking,Medium,2.993211097,8.2981,Female,21,No Difference,More,Increasing,7,3.5,3.500000000000001
ratingclicks_within,42511,11,Liking,Low,3.978204127,4.7319,Female,21,No Difference,More,Increasing,7,3.5,3.500000000000001
ratingclicks_within,42511,12,Liking,High,1.060255294,1.9259,Female,21,No Difference,More,Increasing,7,3.5,3.500000000000001
ratingclicks_within,42511,13,Liking,Medium,3.647404275,8.2676,Female,21,No Difference,More,Increasing,7,3.5,3.500000000000001
ratingclicks_within,42511,14,Liking,High,1.089879025,3.999,Female,21,No Difference,More,Increasing,7,3.5,3.500000000000001
ratingclicks_within,42511,15,Liking,Low,4.945916054,3.6768,Female,21,No Difference,More,Increasing,7,3.5,3.500000000000001
ratingclicks_within,42511,16,Liking,High,1.391054807,2.0649,Female,21,No Difference,More,Increasing,7,3.5,3.500000000000001
ratingclicks_within,42511,17,Liking,Low,4.982945632,1.7789,Female,21,No Difference,More,Increasing,7,3.5,3.500000000000001
ratingclicks_within,42511,18,Liking,Medium,2.020561373,3.0652,Female,21,No Difference,More,Increasing,7,3.5,3.500000000000001
ratingclicks_within,42569,1,Value,Low,1.005763889,4.0126,Female,21,Less,More,Mixed,1,0.5,0.49999999999999734
ratingclicks_within,42569,2,Value,Medium,1.451157407,11.6511,Female,21,Less,More,Mixed,1,0.5,0.49999999999999734
ratingclicks_within,42569,3,Value,High,1.505671296,16.9597,Female,21,Less,More,Mixed,1,0.5,0.49999999999999734
ratingclicks_within,42569,4,Value,Low,2.036898148,2.9009,Female,21,Less,More,Mixed,1,0.5,0.49999999999999734
ratingclicks_within,42569,5,Value,High,1.502476852,4.8508,Female,21,Less,More,Mixed,1,0.5,0.49999999999999734
ratingclicks_within,42569,6,Value,Medium,1.327592593,5.4635,Female,21,Less,More,Mixed,1,0.5,0.49999999999999734
ratingclicks_within,42569,7,Value,High,1.539907407,1.9193,Female,21,Less,More,Mixed,1,0.5,0.49999999999999734
ratingclicks_within,42569,8,Value,Medium,2.955069444,1.369,Female,21,Less,More,Mixed,1,0.5,0.49999999999999734
ratingclicks_within,42569,9,Value,Low,2.472083333,2.0628,Female,21,Less,More,Mixed,1,0.5,0.49999999999999734
ratingclicks_within,42569,10,Liking,Medium,1.177847222,1.2941,Female,21,Less,More,Mixed,1,0.5,0.49999999999999734
ratingclicks_within,42569,11,Liking,Low,2.260023148,1.8965,Female,21,Less,More,Mixed,1,0.5,0.49999999999999734
ratingclicks_within,42569,12,Liking,High,1.517592593,1.3952,Female,21,Less,More,Mixed,1,0.5,0.49999999999999734
ratingclicks_within,42569,13,Liking,Medium,1.588819444,1.5325,Female,21,Less,More,Mixed,1,0.5,0.49999999999999734
ratingclicks_within,42569,14,Liking,High,2.337037037,1.6803,Female,21,Less,More,Mixed,1,0.5,0.49999999999999734
ratingclicks_within,42569,15,Liking,Low,1.922685185,1.1071,Female,21,Less,More,Mixed,1,0.5,0.49999999999999734
ratingclicks_within,42569,16,Liking,High,2.187222222,9.1792,Female,21,Less,More,Mixed,1,0.5,0.49999999999999734
ratingclicks_within,42569,17,Liking,Low,1.483842593,1.7471,Female,21,Less,More,Mixed,1,0.5,0.49999999999999734
ratingclicks_within,42569,18,Liking,Medium,2.385625,1.7557,Female,21,Less,More,Mixed,1,0.5,0.49999999999999734
ratingclicks_within,42573,1,Liking,Low,4.966216725,3.1324,Female,21,More,More,Mixed,3,1.5,1.4999999999999982
ratingclicks_within,42573,2,Liking,Medium,3.826684751,2.8282,Female,21,More,More,Mixed,3,1.5,1.4999999999999982
ratingclicks_within,42573,3,Liking,High,4.406070602,3.3947,Female,21,More,More,Mixed,3,1.5,1.4999999999999982
ratingclicks_within,42573,4,Liking,Low,4.897058738,2.095,Female,21,More,More,Mixed,3,1.5,1.4999999999999982
ratingclicks_within,42573,5,Liking,High,4.030546152,3.2447,Female,21,More,More,Mixed,3,1.5,1.4999999999999982
ratingclicks_within,42573,6,Liking,Medium,4.984478443,1.2461,Female,21,More,More,Mixed,3,1.5,1.4999999999999982
ratingclicks_within,42573,7,Liking,High,1.839918981,2.6594,Female,21,More,More,Mixed,3,1.5,1.4999999999999982
ratingclicks_within,42573,8,Liking,Medium,2.386048177,4.078,Female,21,More,More,Mixed,3,1.5,1.4999999999999982
ratingclicks_within,42573,9,Liking,Low,2.306481481,4.3733,Female,21,More,More,Mixed,3,1.5,1.4999999999999982
ratingclicks_within,42573,10,Value,Medium,3.655802228,5.3433,Female,21,More,More,Mixed,3,1.5,1.4999999999999982
ratingclicks_within,42573,11,Value,Low,3.689975043,5.0929,Female,21,More,More,Mixed,3,1.5,1.4999999999999982
ratingclicks_within,42573,12,Value,High,1,1.1271,Female,21,More,More,Mixed,3,1.5,1.4999999999999982
ratingclicks_within,42573,13,Value,Medium,5,3.2443,Female,21,More,More,Mixed,3,1.5,1.4999999999999982
ratingclicks_within,42573,14,Value,High,2.808992332,2.8761,Female,21,More,More,Mixed,3,1.5,1.4999999999999982
ratingclicks_within,42573,15,Value,Low,2.154947917,2.6597,Female,21,More,More,Mixed,3,1.5,1.4999999999999982
ratingclicks_within,42573,16,Value,High,2.715605469,2.0289,Female,21,More,More,Mixed,3,1.5,1.4999999999999982
ratingclicks_within,42573,17,Value,Low,3.438549262,1.731,Female,21,More,More,Mixed,3,1.5,1.4999999999999982
ratingclicks_within,42573,18,Value,Medium,4.128344184,1.26,Female,21,More,More,Mixed,3,1.5,1.4999999999999982
ratingclicks_within,42575,1,Value,Low,2.452800926,8.5262,Female,21,Less,More,Increasing,3,1.5,1.4999999999999982
ratingclicks_within,42575,2,Value,Medium,3.003310185,2.1612,Female,21,Less,More,Increasing,3,1.5,1.4999999999999982
ratingclicks_within,42575,3,Value,High,2.599675926,3.2454,Female,21,Less,More,Increasing,3,1.5,1.4999999999999982
ratingclicks_within,42575,4,Value,Low,1.479930556,3.6638,Female,21,Less,More,Increasing,3,1.5,1.4999999999999982
ratingclicks_within,42575,5,Value,High,3.864675926,2.3815,Female,21,Less,More,Increasing,3,1.5,1.4999999999999982
ratingclicks_within,42575,6,Value,Medium,2.618356481,3.8447,Female,21,Less,More,Increasing,3,1.5,1.4999999999999982
ratingclicks_within,42575,7,Value,High,4.592824074,3.0113,Female,21,Less,More,Increasing,3,1.5,1.4999999999999982
ratingclicks_within,42575,8,Value,Medium,2.046944444,1.8452,Female,21,Less,More,Increasing,3,1.5,1.4999999999999982
ratingclicks_within,42575,9,Value,Low,2.687337963,3.9948,Female,21,Less,More,Increasing,3,1.5,1.4999999999999982
ratingclicks_within,42575,10,Liking,Medium,3.469074074,4.6432,Female,21,Less,More,Increasing,3,1.5,1.4999999999999982
ratingclicks_within,42575,11,Liking,Low,3.842175926,4.386,Female,21,Less,More,Increasing,3,1.5,1.4999999999999982
ratingclicks_within,42575,12,Liking,High,1.926851852,2.5783,Female,21,Less,More,Increasing,3,1.5,1.4999999999999982
ratingclicks_within,42575,13,Liking,Medium,1.474421296,2.8795,Female,21,Less,More,Increasing,3,1.5,1.4999999999999982
ratingclicks_within,42575,14,Liking,High,3.591273148,2.6129,Female,21,Less,More,Increasing,3,1.5,1.4999999999999982
ratingclicks_within,42575,15,Liking,Low,3.723148148,3.7965,Female,21,Less,More,Increasing,3,1.5,1.4999999999999982
ratingclicks_within,42575,16,Liking,High,2.41275463,2.213,Female,21,Less,More,Increasing,3,1.5,1.4999999999999982
ratingclicks_within,42575,17,Liking,Low,4.525787037,2.7625,Female,21,Less,More,Increasing,3,1.5,1.4999999999999982
ratingclicks_within,42575,18,Liking,Medium,4.664537037,2.7123,Female,21,Less,More,Increasing,3,1.5,1.4999999999999982
ratingclicks_within,42665,1,Liking,Low,1.992013889,11.8086,Female,21,No Difference,More,Mixed,-1,-0.5,-0.4999999999999992
ratingclicks_within,42665,2,Liking,Medium,3.040787037,3.0019,Female,21,No Difference,More,Mixed,-1,-0.5,-0.4999999999999992
ratingclicks_within,42665,3,Liking,High,1.029837963,4.4442,Female,21,No Difference,More,Mixed,-1,-0.5,-0.4999999999999992
ratingclicks_within,42665,4,Liking,Low,1.972268519,1.8642,Female,21,No Difference,More,Mixed,-1,-0.5,-0.4999999999999992
ratingclicks_within,42665,5,Liking,High,1.03162037,2.0788,Female,21,No Difference,More,Mixed,-1,-0.5,-0.4999999999999992
ratingclicks_within,42665,6,Liking,Medium,4.029097222,1.4107,Female,21,No Difference,More,Mixed,-1,-0.5,-0.4999999999999992
ratingclicks_within,42665,7,Liking,High,1.092986111,2.8369,Female,21,No Difference,More,Mixed,-1,-0.5,-0.4999999999999992
ratingclicks_within,42665,8,Liking,Medium,2.883240741,2.0792,Female,21,No Difference,More,Mixed,-1,-0.5,-0.4999999999999992
ratingclicks_within,42665,9,Liking,Low,3.092638889,2.1987,Female,21,No Difference,More,Mixed,-1,-0.5,-0.4999999999999992
ratingclicks_within,42665,10,Value,Medium,1.020324074,3.8879,Female,21,No Difference,More,Mixed,-1,-0.5,-0.4999999999999992
ratingclicks_within,42665,11,Value,Low,1.946180556,2.135,Female,21,No Difference,More,Mixed,-1,-0.5,-0.4999999999999992
ratingclicks_within,42665,12,Value,High,3.004166667,2.1605,Female,21,No Difference,More,Mixed,-1,-0.5,-0.4999999999999992
ratingclicks_within,42665,13,Value,Medium,1.987731481,2.2958,Female,21,No Difference,More,Mixed,-1,-0.5,-0.4999999999999992
ratingclicks_within,42665,14,Value,High,4.008101852,2.7068,Female,21,No Difference,More,Mixed,-1,-0.5,-0.4999999999999992
ratingclicks_within,42665,15,Value,Low,4.937337963,0.7048,Female,21,No Difference,More,Mixed,-1,-0.5,-0.4999999999999992
ratingclicks_within,42665,16,Value,High,1.066967593,1.6533,Female,21,No Difference,More,Mixed,-1,-0.5,-0.4999999999999992
ratingclicks_within,42665,17,Value,Low,4.969097222,1.6112,Female,21,No Difference,More,Mixed,-1,-0.5,-0.4999999999999992
ratingclicks_within,42665,18,Value,Medium,4.012569444,1.4356,Female,21,No Difference,More,Mixed,-1,-0.5,-0.4999999999999992
ratingclicks_within,42742,1,Liking,Low,3.026666667,3.609,Female,22,Less,Less,Mixed,7,3.5,3.499999999999997
ratingclicks_within,42742,2,Liking,Medium,4,7.323,Female,22,Less,Less,Mixed,7,3.5,3.499999999999997
ratingclicks_within,42742,3,Liking,High,2,2.845,Female,22,Less,Less,Mixed,7,3.5,3.499999999999997
ratingclicks_within,42742,4,Liking,Low,2.06,2.502,Female,22,Less,Less,Mixed,7,3.5,3.499999999999997
ratingclicks_within,42742,5,Liking,High,3.62,5.99,Female,22,Less,Less,Mixed,7,3.5,3.499999999999997
ratingclicks_within,42742,6,Liking,Medium,3.513333333,2.079,Female,22,Less,Less,Mixed,7,3.5,3.499999999999997
ratingclicks_within,42742,7,Liking,High,1.613333333,2.872,Female,22,Less,Less,Mixed,7,3.5,3.499999999999997
ratingclicks_within,42742,8,Liking,Medium,3.246666667,8.137,Female,22,Less,Less,Mixed,7,3.5,3.499999999999997
ratingclicks_within,42742,9,Liking,Low,4.373333333,3.319,Female,22,Less,Less,Mixed,7,3.5,3.499999999999997
ratingclicks_within,42742,10,Value,Medium,2.9,5.789,Female,22,Less,Less,Mixed,7,3.5,3.499999999999997
ratingclicks_within,42742,11,Value,Low,3.386666667,11.288,Female,22,Less,Less,Mixed,7,3.5,3.499999999999997
ratingclicks_within,42742,12,Value,High,3.846666667,3.469,Female,22,Less,Less,Mixed,7,3.5,3.499999999999997
ratingclicks_within,42742,13,Value,Medium,3.246666667,3.449,Female,22,Less,Less,Mixed,7,3.5,3.499999999999997
ratingclicks_within,42742,14,Value,High,2.5,3.947,Female,22,Less,Less,Mixed,7,3.5,3.499999999999997
ratingclicks_within,42742,15,Value,Low,1.746666667,3.619,Female,22,Less,Less,Mixed,7,3.5,3.499999999999997
ratingclicks_within,42742,16,Value,High,3.433333333,31.035,Female,22,Less,Less,Mixed,7,3.5,3.499999999999997
ratingclicks_within,42742,17,Value,Low,1.626666667,2.783,Female,22,Less,Less,Mixed,7,3.5,3.499999999999997
ratingclicks_within,42742,18,Value,Medium,1.366666667,1.43,Female,22,Less,Less,Mixed,7,3.5,3.499999999999997
ratingclicks_within,42808,1,Liking,Low,1,2.5137,Male,21,Less,More,Increasing,14,7,7.000000000000002
ratingclicks_within,42808,2,Liking,Medium,2.986612654,2.5707,Male,21,Less,More,Increasing,14,7,7.000000000000002
ratingclicks_within,42808,3,Liking,High,4.427256944,1.7365,Male,21,Less,More,Increasing,14,7,7.000000000000002
ratingclicks_within,42808,4,Liking,Low,4.252932099,1.0111,Male,21,Less,More,Increasing,14,7,7.000000000000002
ratingclicks_within,42808,5,Liking,High,4.482484568,1.9165,Male,21,Less,More,Increasing,14,7,7.000000000000002
ratingclicks_within,42808,6,Liking,Medium,2.353742284,1.4375,Male,21,Less,More,Increasing,14,7,7.000000000000002
ratingclicks_within,42808,7,Liking,High,1.598302469,4.2365,Male,21,Less,More,Increasing,14,7,7.000000000000002
ratingclicks_within,42808,8,Liking,Medium,3.787673611,2.0927,Male,21,Less,More,Increasing,14,7,7.000000000000002
ratingclicks_within,42808,9,Liking,Low,1.53126929,2.8236,Male,21,Less,More,Increasing,14,7,7.000000000000002
ratingclicks_within,42808,10,Value,Medium,1,2.261,Male,21,Less,More,Increasing,14,7,7.000000000000002
ratingclicks_within,42808,11,Value,Low,1.708699846,1.0098,Male,21,Less,More,Increasing,14,7,7.000000000000002
ratingclicks_within,42808,12,Value,High,1.66099537,1.7605,Male,21,Less,More,Increasing,14,7,7.000000000000002
ratingclicks_within,42808,13,Value,Medium,1,3.5779,Male,21,Less,More,Increasing,14,7,7.000000000000002
ratingclicks_within,42808,14,Value,High,2.409182099,2.0369,Male,21,Less,More,Increasing,14,7,7.000000000000002
ratingclicks_within,42808,15,Value,Low,2.972839506,1.2508,Male,21,Less,More,Increasing,14,7,7.000000000000002
ratingclicks_within,42808,16,Value,High,1.915123457,3.8698,Male,21,Less,More,Increasing,14,7,7.000000000000002
ratingclicks_within,42808,17,Value,Low,3.705941358,3.5963,Male,21,Less,More,Increasing,14,7,7.000000000000002
ratingclicks_within,42808,18,Value,Medium,2.316898148,1.0365,Male,21,Less,More,Increasing,14,7,7.000000000000002
ratingclicks_within,42946,1,Value,Low,1.977100333,3.0072,Female,21,Less,No Difference,Mixed,0,0,-1.2560739669470205e-15
ratingclicks_within,42946,2,Value,Medium,4.039875579,3.8953,Female,21,Less,No Difference,Mixed,0,0,-1.2560739669470205e-15
ratingclicks_within,42946,3,Value,High,5,1.7645,Female,21,Less,No Difference,Mixed,0,0,-1.2560739669470205e-15
ratingclicks_within,42946,4,Value,Low,1,1.3968,Female,21,Less,No Difference,Mixed,0,0,-1.2560739669470205e-15
ratingclicks_within,42946,5,Value,High,3.876454355,6.7737,Female,21,Less,No Difference,Mixed,0,0,-1.2560739669470205e-15
ratingclicks_within,42946,6,Value,Medium,1.600876736,2.4891,Female,21,Less,No Difference,Mixed,0,0,-1.2560739669470205e-15
ratingclicks_within,42946,7,Value,High,2.756308955,1.6476,Female,21,Less,No Difference,Mixed,0,0,-1.2560739669470205e-15
ratingclicks_within,42946,8,Value,Medium,1.43024179,2.2451,Female,21,Less,No Difference,Mixed,0,0,-1.2560739669470205e-15
ratingclicks_within,42946,9,Value,Low,1,1.1639,Female,21,Less,No Difference,Mixed,0,0,-1.2560739669470205e-15
ratingclicks_within,42946,10,Liking,Medium,3.799850622,3.1139,Female,21,Less,No Difference,Mixed,0,0,-1.2560739669470205e-15
ratingclicks_within,42946,11,Liking,Low,4.24273112,3.5013,Female,21,Less,No Difference,Mixed,0,0,-1.2560739669470205e-15
ratingclicks_within,42946,12,Liking,High,1.957247179,3.1111,Female,21,Less,No Difference,Mixed,0,0,-1.2560739669470205e-15
ratingclicks_within,42946,13,Liking,Medium,3.914771412,3.6583,Female,21,Less,No Difference,Mixed,0,0,-1.2560739669470205e-15
ratingclicks_within,42946,14,Liking,High,3.1818023,4.7437,Female,21,Less,No Difference,Mixed,0,0,-1.2560739669470205e-15
ratingclicks_within,42946,15,Liking,Low,2.401536458,2.8806,Female,21,Less,No Difference,Mixed,0,0,-1.2560739669470205e-15
ratingclicks_within,42946,16,Liking,High,1.913860315,4.5952,Female,21,Less,No Difference,Mixed,0,0,-1.2560739669470205e-15
ratingclicks_within,42946,17,Liking,Low,1.917961878,8.018,Female,21,Less,No Difference,Mixed,0,0,-1.2560739669470205e-15
ratingclicks_within,42946,18,Liking,Medium,2.558466797,2.7262,Female,21,Less,No Difference,Mixed,0,0,-1.2560739669470205e-15
ratingclicks_within,43378,1,Value,Low,1.493333435,9.5398,Female,21,More,No Difference,Mixed,0,0,-0
ratingclicks_within,43378,2,Value,Medium,2.013333469,6.8823,Female,21,More,No Difference,Mixed,0,0,-0
ratingclicks_within,43378,3,Value,High,3.013333469,3.9522,Female,21,More,No Difference,Mixed,0,0,-0
ratingclicks_within,43378,4,Value,Low,2.591111247,3.2805,Female,21,More,No Difference,Mixed,0,0,-0
ratingclicks_within,43378,5,Value,High,1.515555657,6.8796,Female,21,More,No Difference,Mixed,0,0,-0
ratingclicks_within,43378,6,Value,Medium,1.288888889,3.5804,Female,21,More,No Difference,Mixed,0,0,-0
ratingclicks_within,43378,7,Value,High,2.297777981,4.3459,Female,21,More,No Difference,Mixed,0,0,-0
ratingclicks_within,43378,8,Value,Medium,2.013333469,7.2795,Female,21,More,No Difference,Mixed,0,0,-0
ratingclicks_within,43378,9,Value,Low,3.46222229,3.6827,Female,21,More,No Difference,Mixed,0,0,-0
ratingclicks_within,43378,10,Liking,Medium,3.840000068,5.597,Female,21,More,No Difference,Mixed,0,0,-0
ratingclicks_within,43378,11,Liking,Low,3.52444458,2.4192,Female,21,More,No Difference,Mixed,0,0,-0
ratingclicks_within,43378,12,Liking,High,2.528888957,2.7869,Female,21,More,No Difference,Mixed,0,0,-0
ratingclicks_within,43378,13,Liking,Medium,3.457777913,3.3905,Female,21,More,No Difference,Mixed,0,0,-0
ratingclicks_within,43378,14,Liking,High,1.497777812,3.7624,Female,21,More,No Difference,Mixed,0,0,-0
ratingclicks_within,43378,15,Liking,Low,2.551111179,2.5642,Female,21,More,No Difference,Mixed,0,0,-0
ratingclicks_within,43378,16,Liking,High,1.617777846,8.1984,Female,21,More,No Difference,Mixed,0,0,-0
ratingclicks_within,43378,17,Liking,Low,3.902222358,2.9978,Female,21,More,No Difference,Mixed,0,0,-0
ratingclicks_within,43378,18,Liking,Medium,3.377777778,4.5498,Female,21,More,No Difference,Mixed,0,0,-0
ratingclicks_within,43387,1,Liking,Low,3.977777778,5.67,Female,21,More,More,Mixed,4,2,2.0000000000000013
ratingclicks_within,43387,2,Liking,Medium,2.976296296,7.664,Female,21,More,More,Mixed,4,2,2.0000000000000013
ratingclicks_within,43387,3,Liking,High,1,4.644,Female,21,More,More,Mixed,4,2,2.0000000000000013
ratingclicks_within,43387,4,Liking,Low,1.008888889,2.604,Female,21,More,More,Mixed,4,2,2.0000000000000013
ratingclicks_within,43387,5,Liking,High,2.922962963,2.505,Female,21,More,More,Mixed,4,2,2.0000000000000013
ratingclicks_within,43387,6,Liking,Medium,2.028148148,1.439,Female,21,More,More,Mixed,4,2,2.0000000000000013
ratingclicks_within,43387,7,Liking,High,4.979259259,2.305,Female,21,More,More,Mixed,4,2,2.0000000000000013
ratingclicks_within,43387,8,Liking,Medium,4.943703704,3.268,Female,21,More,More,Mixed,4,2,2.0000000000000013
ratingclicks_within,43387,9,Liking,Low,4.991111111,3.824,Female,21,More,More,Mixed,4,2,2.0000000000000013
ratingclicks_within,43387,10,Value,Medium,1.008888889,2.388,Female,21,More,More,Mixed,4,2,2.0000000000000013
ratingclicks_within,43387,11,Value,Low,2.028148148,0.857,Female,21,More,More,Mixed,4,2,2.0000000000000013
ratingclicks_within,43387,12,Value,High,4.985185185,3.937,Female,21,More,More,Mixed,4,2,2.0000000000000013
ratingclicks_within,43387,13,Value,Medium,4.007407407,3.287,Female,21,More,More,Mixed,4,2,2.0000000000000013
ratingclicks_within,43387,14,Value,High,4.179259259,2.722,Female,21,More,More,Mixed,4,2,2.0000000000000013
ratingclicks_within,43387,15,Value,Low,4.001481481,2.774,Female,21,More,More,Mixed,4,2,2.0000000000000013
ratingclicks_within,43387,16,Value,High,3.871111111,2.294,Female,21,More,More,Mixed,4,2,2.0000000000000013
ratingclicks_within,43387,17,Value,Low,3.059259259,1.155,Female,21,More,More,Mixed,4,2,2.0000000000000013
ratingclicks_within,43387,18,Value,Medium,2.994074074,1.777,Female,21,More,More,Mixed,4,2,2.0000000000000013
ratingclicks_within,43602,1,Value,Low,2.962361111,4.757,Female,21,More,No Difference,Increasing,11,5.5,5.499999999999999
ratingclicks_within,43602,2,Value,Medium,1.559421296,7.9106,Female,21,More,No Difference,Increasing,11,5.5,5.499999999999999
ratingclicks_within,43602,3,Value,High,1,4.5342,Female,21,More,No Difference,Increasing,11,5.5,5.499999999999999
ratingclicks_within,43602,4,Value,Low,5,3.5024,Female,21,More,No Difference,Increasing,11,5.5,5.499999999999999
ratingclicks_within,43602,5,Value,High,4.020347222,2.6845,Female,21,More,No Difference,Increasing,11,5.5,5.499999999999999
ratingclicks_within,43602,6,Value,Medium,1.97775463,4.0303,Female,21,More,No Difference,Increasing,11,5.5,5.499999999999999
ratingclicks_within,43602,7,Value,High,3.007314815,2.1117,Female,21,More,No Difference,Increasing,11,5.5,5.499999999999999
ratingclicks_within,43602,8,Value,Medium,3.996944444,4.21,Female,21,More,No Difference,Increasing,11,5.5,5.499999999999999
ratingclicks_within,43602,9,Value,Low,5,2.1297,Female,21,More,No Difference,Increasing,11,5.5,5.499999999999999
ratingclicks_within,43602,10,Liking,Medium,3.717662037,5.2436,Female,21,More,No Difference,Increasing,11,5.5,5.499999999999999
ratingclicks_within,43602,11,Liking,Low,2.736134259,3.2793,Female,21,More,No Difference,Increasing,11,5.5,5.499999999999999
ratingclicks_within,43602,12,Liking,High,2.59724537,4.9175,Female,21,More,No Difference,Increasing,11,5.5,5.499999999999999
ratingclicks_within,43602,13,Liking,Medium,3.318634259,5.7971,Female,21,More,No Difference,Increasing,11,5.5,5.499999999999999
ratingclicks_within,43602,14,Liking,High,3.765717593,3.3935,Female,21,More,No Difference,Increasing,11,5.5,5.499999999999999
ratingclicks_within,43602,15,Liking,Low,4.280902778,3.0215,Female,21,More,No Difference,Increasing,11,5.5,5.499999999999999
ratingclicks_within,43602,16,Liking,High,3.416851852,2.3937,Female,21,More,No Difference,Increasing,11,5.5,5.499999999999999
ratingclicks_within,43602,17,Liking,Low,3.432662037,3.3105,Female,21,More,No Difference,Increasing,11,5.5,5.499999999999999
ratingclicks_within,43602,18,Liking,Medium,3.742662037,2.1614,Female,21,More,No Difference,Increasing,11,5.5,5.499999999999999
ratingclicks_within,43622,1,Liking,Low,1.673367875,4.5391,Female,21,More,More,Mixed,0,0,-1.2560739669470205e-15
ratingclicks_within,43622,2,Liking,Medium,2.414499421,5.0977,Female,21,More,More,Mixed,0,0,-1.2560739669470205e-15
ratingclicks_within,43622,3,Liking,High,1.642592773,3.555,Female,21,More,More,Mixed,0,0,-1.2560739669470205e-15
ratingclicks_within,43622,4,Liking,Low,2.407732567,2.6098,Female,21,More,More,Mixed,0,0,-1.2560739669470205e-15
ratingclicks_within,43622,5,Liking,High,4.997883391,2.5087,Female,21,More,More,Mixed,0,0,-1.2560739669470205e-15
ratingclicks_within,43622,6,Liking,Medium,3.111351273,9.7431,Female,21,More,More,Mixed,0,0,-1.2560739669470205e-15
ratingclicks_within,43622,7,Liking,High,4.261511863,1.8757,Female,21,More,More,Mixed,0,0,-1.2560739669470205e-15
ratingclicks_within,43622,8,Liking,Medium,2.448770616,2.66,Female,21,More,More,Mixed,0,0,-1.2560739669470205e-15
ratingclicks_within,43622,9,Liking,Low,4.40395544,2.9363,Female,21,More,More,Mixed,0,0,-1.2560739669470205e-15
ratingclicks_within,43622,10,Value,Medium,3.037203414,10.5073,Female,21,More,More,Mixed,0,0,-1.2560739669470205e-15
ratingclicks_within,43622,11,Value,Low,3.92026765,2.6751,Female,21,More,More,Mixed,0,0,-1.2560739669470205e-15
ratingclicks_within,43622,12,Value,High,3.459894025,4.4571,Female,21,More,More,Mixed,0,0,-1.2560739669470205e-15
ratingclicks_within,43622,13,Value,Medium,2.10680447,2.6282,Female,21,More,More,Mixed,0,0,-1.2560739669470205e-15
ratingclicks_within,43622,14,Value,High,3.296257957,7.9917,Female,21,More,More,Mixed,0,0,-1.2560739669470205e-15
ratingclicks_within,43622,15,Value,Low,3.543758681,9.4301,Female,21,More,More,Mixed,0,0,-1.2560739669470205e-15
ratingclicks_within,43622,16,Value,High,1,3.1795,Female,21,More,More,Mixed,0,0,-1.2560739669470205e-15
ratingclicks_within,43622,17,Value,Low,1.871334997,1.411,Female,21,More,More,Mixed,0,0,-1.2560739669470205e-15
ratingclicks_within,43622,18,Value,Medium,3.541545139,6.51,Female,21,More,More,Mixed,0,0,-1.2560739669470205e-15
ratingclicks_within,43630,1,Liking,Low,2.007925725,2.7088,Female,21,No Difference,No Difference,Increasing,2,1,0.9999999999999978
ratingclicks_within,43630,2,Liking,Medium,3.075973732,1.476,Female,21,No Difference,No Difference,Increasing,2,1,0.9999999999999978
ratingclicks_within,43630,3,Liking,High,1.964130435,1.9382,Female,21,No Difference,No Difference,Increasing,2,1,0.9999999999999978
ratingclicks_within,43630,4,Liking,Low,2.240172101,6.9336,Female,21,No Difference,No Difference,Increasing,2,1,0.9999999999999978
ratingclicks_within,43630,5,Liking,High,2.421807065,3.9018,Female,21,No Difference,No Difference,Increasing,2,1,0.9999999999999978
ratingclicks_within,43630,6,Liking,Medium,2.994814312,1.0515,Female,21,No Difference,No Difference,Increasing,2,1,0.9999999999999978
ratingclicks_within,43630,7,Liking,High,2.630887681,1.6934,Female,21,No Difference,No Difference,Increasing,2,1,0.9999999999999978
ratingclicks_within,43630,8,Liking,Medium,2.479121377,5.7288,Female,21,No Difference,No Difference,Increasing,2,1,0.9999999999999978
ratingclicks_within,43630,9,Liking,Low,4.332586051,4.3805,Female,21,No Difference,No Difference,Increasing,2,1,0.9999999999999978
ratingclicks_within,43630,10,Value,Medium,2.500815217,4.418,Female,21,No Difference,No Difference,Increasing,2,1,0.9999999999999978
ratingclicks_within,43630,11,Value,Low,1.87660779,4.6124,Female,21,No Difference,No Difference,Increasing,2,1,0.9999999999999978
ratingclicks_within,43630,12,Value,High,2.695199275,7.0355,Female,21,No Difference,No Difference,Increasing,2,1,0.9999999999999978
ratingclicks_within,43630,13,Value,Medium,3.321263587,2.7642,Female,21,No Difference,No Difference,Increasing,2,1,0.9999999999999978
ratingclicks_within,43630,14,Value,High,2.662930254,3.8113,Female,21,No Difference,No Difference,Increasing,2,1,0.9999999999999978
ratingclicks_within,43630,15,Value,Low,3.5515625,1.4452,Female,21,No Difference,No Difference,Increasing,2,1,0.9999999999999978
ratingclicks_within,43630,16,Value,High,4.313768116,2.0211,Female,21,No Difference,No Difference,Increasing,2,1,0.9999999999999978
ratingclicks_within,43630,17,Value,Low,4.25776721,2.7385,Female,21,No Difference,No Difference,Increasing,2,1,0.9999999999999978
ratingclicks_within,43630,18,Value,Medium,1.690987319,1.7777,Female,21,No Difference,No Difference,Increasing,2,1,0.9999999999999978
ratingclicks_within,43775,1,Value,Low,2.008795844,1.6103,Female,21,Less,Less,Increasing,1,0.5,0.4999999999999989
ratingclicks_within,43775,2,Value,Medium,4.053738064,1.4339,Female,21,Less,Less,Increasing,1,0.5,0.4999999999999989
ratingclicks_within,43775,3,Value,High,4.982893202,2.0215,Female,21,Less,Less,Increasing,1,0.5,0.4999999999999989
ratingclicks_within,43775,4,Value,Low,2.16425493,59.0784,Female,21,Less,Less,Increasing,1,0.5,0.4999999999999989
ratingclicks_within,43775,5,Value,High,2.991577431,1.9023,Female,21,Less,Less,Increasing,1,0.5,0.4999999999999989
ratingclicks_within,43775,6,Value,Medium,2.049801014,26.8246,Female,21,Less,Less,Increasing,1,0.5,0.4999999999999989
ratingclicks_within,43775,7,Value,High,3.104422675,1.9041,Female,21,Less,Less,Increasing,1,0.5,0.4999999999999989
ratingclicks_within,43775,8,Value,Medium,3.064474035,2.3693,Female,21,Less,Less,Increasing,1,0.5,0.4999999999999989
ratingclicks_within,43775,9,Value,Low,2.695449547,2.1019,Female,21,Less,Less,Increasing,1,0.5,0.4999999999999989
ratingclicks_within,43775,10,Liking,Medium,2.949990732,1.8348,Female,21,Less,Less,Increasing,1,0.5,0.4999999999999989
ratingclicks_within,43775,11,Liking,Low,3.98117235,2.2928,Female,21,Less,Less,Increasing,1,0.5,0.4999999999999989
ratingclicks_within,43775,12,Liking,High,3.039881953,1.0726,Female,21,Less,Less,Increasing,1,0.5,0.4999999999999989
ratingclicks_within,43775,13,Liking,Medium,3.934893008,6.0095,Female,21,Less,Less,Increasing,1,0.5,0.4999999999999989
ratingclicks_within,43775,14,Liking,High,2.024658486,30.5752,Female,21,Less,Less,Increasing,1,0.5,0.4999999999999989
ratingclicks_within,43775,15,Liking,Low,3.893907335,35.1723,Female,21,Less,Less,Increasing,1,0.5,0.4999999999999989
ratingclicks_within,43775,16,Liking,High,2.070747941,1.4124,Female,21,Less,Less,Increasing,1,0.5,0.4999999999999989
ratingclicks_within,43775,17,Liking,Low,2.075920388,7.2934,Female,21,Less,Less,Increasing,1,0.5,0.4999999999999989
ratingclicks_within,43775,18,Liking,Medium,2.099776657,1.8731,Female,21,Less,Less,Increasing,1,0.5,0.4999999999999989
ratingclicks_within,43824,1,Value,Low,2.008680556,7.0196,Female,22,More,More,Increasing,9,4.5,4.500000000000001
ratingclicks_within,43824,2,Value,Medium,1,7.6469,Female,22,More,More,Increasing,9,4.5,4.500000000000001
ratingclicks_within,43824,3,Value,High,4.011898148,2.2445,Female,22,More,More,Increasing,9,4.5,4.500000000000001
ratingclicks_within,43824,4,Value,Low,3.976527778,3.6696,Female,22,More,More,Increasing,9,4.5,4.500000000000001
ratingclicks_within,43824,5,Value,High,1.467013889,4.4236,Female,22,More,More,Increasing,9,4.5,4.500000000000001
ratingclicks_within,43824,6,Value,Medium,3.516273148,2.1942,Female,22,More,More,Increasing,9,4.5,4.500000000000001
ratingclicks_within,43824,7,Value,High,1.46775463,2.3774,Female,22,More,More,Increasing,9,4.5,4.500000000000001
ratingclicks_within,43824,8,Value,Medium,2.524421296,1.9115,Female,22,More,More,Increasing,9,4.5,4.500000000000001
ratingclicks_within,43824,9,Value,Low,3.215833333,1.6381,Female,22,More,More,Increasing,9,4.5,4.500000000000001
ratingclicks_within,43824,10,Liking,Medium,3.024050926,4.203,Female,22,More,More,Increasing,9,4.5,4.500000000000001
ratingclicks_within,43824,11,Liking,Low,2.456666667,3.5951,Female,22,More,More,Increasing,9,4.5,4.500000000000001
ratingclicks_within,43824,12,Liking,High,1.725972222,2.4705,Female,22,More,More,Increasing,9,4.5,4.500000000000001
ratingclicks_within,43824,13,Liking,Medium,3.454560185,2.9198,Female,22,More,More,Increasing,9,4.5,4.500000000000001
ratingclicks_within,43824,14,Liking,High,1.374490741,3.9548,Female,22,More,More,Increasing,9,4.5,4.500000000000001
ratingclicks_within,43824,15,Liking,Low,2.708171296,3.0225,Female,22,More,More,Increasing,9,4.5,4.500000000000001
ratingclicks_within,43824,16,Liking,High,2.907106481,3.3607,Female,22,More,More,Increasing,9,4.5,4.500000000000001
ratingclicks_within,43824,17,Liking,Low,3.322476852,1.8784,Female,22,More,More,Increasing,9,4.5,4.500000000000001
ratingclicks_within,43824,18,Liking,Medium,1.729976852,2.6225,Female,22,More,More,Increasing,9,4.5,4.500000000000001
ratingclicks_within,43867,1,Value,Low,2.940717593,8.4462,Female,20,More,More,Decreasing,-5,-2.5,-2.5000000000000004
ratingclicks_within,43867,2,Value,Medium,1.976759259,3.136,Female,20,More,More,Decreasing,-5,-2.5,-2.5000000000000004
ratingclicks_within,43867,3,Value,High,1.617708333,1.6811,Female,20,More,More,Decreasing,-5,-2.5,-2.5000000000000004
ratingclicks_within,43867,4,Value,Low,2.524722222,2.4018,Female,20,More,More,Decreasing,-5,-2.5,-2.5000000000000004
ratingclicks_within,43867,5,Value,High,3.414560185,5.5697,Female,20,More,More,Decreasing,-5,-2.5,-2.5000000000000004
ratingclicks_within,43867,6,Value,Medium,2.955578704,3.0618,Female,20,More,More,Decreasing,-5,-2.5,-2.5000000000000004
ratingclicks_within,43867,7,Value,High,1.977638889,3.387,Female,20,More,More,Decreasing,-5,-2.5,-2.5000000000000004
ratingclicks_within,43867,8,Value,Medium,2.872037037,1.4471,Female,20,More,More,Decreasing,-5,-2.5,-2.5000000000000004
ratingclicks_within,43867,9,Value,Low,2.489050926,1.3211,Female,20,More,More,Decreasing,-5,-2.5,-2.5000000000000004
ratingclicks_within,43867,10,Liking,Medium,2.317106481,3.6429,Female,20,More,More,Decreasing,-5,-2.5,-2.5000000000000004
ratingclicks_within,43867,11,Liking,Low,3.008888889,2.0466,Female,20,More,More,Decreasing,-5,-2.5,-2.5000000000000004
ratingclicks_within,43867,12,Liking,High,2.855138889,6.6624,Female,20,More,More,Decreasing,-5,-2.5,-2.5000000000000004
ratingclicks_within,43867,13,Liking,Medium,2.206388889,2.2638,Female,20,More,More,Decreasing,-5,-2.5,-2.5000000000000004
ratingclicks_within,43867,14,Liking,High,2.781550926,1.3463,Female,20,More,More,Decreasing,-5,-2.5,-2.5000000000000004
ratingclicks_within,43867,15,Liking,Low,2.7427777780000002,1.49,Female,20,More,More,Decreasing,-5,-2.5,-2.5000000000000004
ratingclicks_within,43867,16,Liking,High,2.872986111,1.2477,Female,20,More,More,Decreasing,-5,-2.5,-2.5000000000000004
ratingclicks_within,43867,17,Liking,Low,1.687476852,1.3135,Female,20,More,More,Decreasing,-5,-2.5,-2.5000000000000004
ratingclicks_within,43867,18,Liking,Medium,3.305833333,1.1141,Female,20,More,More,Decreasing,-5,-2.5,-2.5000000000000004
ratingclicks_within,43989,1,Liking,Low,1.405925926,4.889,Female,21,No Difference,No Difference,Increasing,14,7,7.000000000000002
ratingclicks_within,43989,2,Liking,Medium,1,2.951,Female,21,No Difference,No Difference,Increasing,14,7,7.000000000000002
ratingclicks_within,43989,3,Liking,High,1,1.332,Female,21,No Difference,No Difference,Increasing,14,7,7.000000000000002
ratingclicks_within,43989,4,Liking,Low,4.031111111,4.517,Female,21,No Difference,No Difference,Increasing,14,7,7.000000000000002
ratingclicks_within,43989,5,Liking,High,1,1.222,Female,21,No Difference,No Difference,Increasing,14,7,7.000000000000002
ratingclicks_within,43989,6,Liking,Medium,2.976296296,3.905,Female,21,No Difference,No Difference,Increasing,14,7,7.000000000000002
ratingclicks_within,43989,7,Liking,High,1,1.966,Female,21,No Difference,No Difference,Increasing,14,7,7.000000000000002
ratingclicks_within,43989,8,Liking,Medium,2.946666667,14.2,Female,21,No Difference,No Difference,Increasing,14,7,7.000000000000002
ratingclicks_within,43989,9,Liking,Low,3.634074074,1.857,Female,21,No Difference,No Difference,Increasing,14,7,7.000000000000002
ratingclicks_within,43989,10,Value,Medium,1,3.305,Female,21,No Difference,No Difference,Increasing,14,7,7.000000000000002
ratingclicks_within,43989,11,Value,Low,2.271111111,2.051,Female,21,No Difference,No Difference,Increasing,14,7,7.000000000000002
ratingclicks_within,43989,12,Value,High,1,1.085,Female,21,No Difference,No Difference,Increasing,14,7,7.000000000000002
ratingclicks_within,43989,13,Value,Medium,1,1.337,Female,21,No Difference,No Difference,Increasing,14,7,7.000000000000002
ratingclicks_within,43989,14,Value,High,1,1.966,Female,21,No Difference,No Difference,Increasing,14,7,7.000000000000002
ratingclicks_within,43989,15,Value,Low,3.521481481,1.189,Female,21,No Difference,No Difference,Increasing,14,7,7.000000000000002
ratingclicks_within,43989,16,Value,High,1,1.568,Female,21,No Difference,No Difference,Increasing,14,7,7.000000000000002
ratingclicks_within,43989,17,Value,Low,2.271111111,2.223,Female,21,No Difference,No Difference,Increasing,14,7,7.000000000000002
ratingclicks_within,43989,18,Value,Medium,1.038518519,1.357,Female,21,No Difference,No Difference,Increasing,14,7,7.000000000000002
ratingclicks_within,44074,1,Value,Low,2.041975309,7.0662,Male,22,More,More,Increasing,11,5.5,5.500000000000002
ratingclicks_within,44074,2,Value,Medium,4.002469136,2.6431,Male,22,More,More,Increasing,11,5.5,5.500000000000002
ratingclicks_within,44074,3,Value,High,3.997530864,6.0753,Male,22,More,More,Increasing,11,5.5,5.500000000000002
ratingclicks_within,44074,4,Value,Low,2.975308642,3.0034,Male,22,More,More,Increasing,11,5.5,5.500000000000002
ratingclicks_within,44074,5,Value,High,3.977777778,5.3587,Male,22,More,More,Increasing,11,5.5,5.500000000000002
ratingclicks_within,44074,6,Value,Medium,4.550617284,4.9354,Male,22,More,More,Increasing,11,5.5,5.500000000000002
ratingclicks_within,44074,7,Value,High,3.987654321,2.7057,Male,22,More,More,Increasing,11,5.5,5.500000000000002
ratingclicks_within,44074,8,Value,Medium,4.002469136,2.2561,Male,22,More,More,Increasing,11,5.5,5.500000000000002
ratingclicks_within,44074,9,Value,Low,2.520987654,4.0839,Male,22,More,More,Increasing,11,5.5,5.500000000000002
ratingclicks_within,44074,10,Liking,Medium,3.439506173,5.0039,Male,22,More,More,Increasing,11,5.5,5.500000000000002
ratingclicks_within,44074,11,Liking,Low,2.980246914,5.1515,Male,22,More,More,Increasing,11,5.5,5.500000000000002
ratingclicks_within,44074,12,Liking,High,3.014814815,9.2617,Male,22,More,More,Increasing,11,5.5,5.500000000000002
ratingclicks_within,44074,13,Liking,Medium,2.007407407,2.9433,Male,22,More,More,Increasing,11,5.5,5.500000000000002
ratingclicks_within,44074,14,Liking,High,3.479012346,3.5038,Male,22,More,More,Increasing,11,5.5,5.500000000000002
ratingclicks_within,44074,15,Liking,Low,1.958024691,15.6245,Male,22,More,More,Increasing,11,5.5,5.500000000000002
ratingclicks_within,44074,16,Liking,High,2.451851852,4.1131,Male,22,More,More,Increasing,11,5.5,5.500000000000002
ratingclicks_within,44074,17,Liking,Low,3.49382716,2.9265,Male,22,More,More,Increasing,11,5.5,5.500000000000002
ratingclicks_within,44074,18,Liking,Medium,3.977777778,4.0738,Male,22,More,More,Increasing,11,5.5,5.500000000000002
ratingclicks_within,44270,1,Liking,Low,1.973900075,8.757,Female,21,No Difference,More,Mixed,2,1,0.9999999999999978
ratingclicks_within,44270,2,Liking,Medium,2.988068606,6.012,Female,21,No Difference,More,Mixed,2,1,0.9999999999999978
ratingclicks_within,44270,3,Liking,High,3.417598807,3.837,Female,21,No Difference,More,Mixed,2,1,0.9999999999999978
ratingclicks_within,44270,4,Liking,Low,2.540641312,5.56,Female,21,No Difference,More,Mixed,2,1,0.9999999999999978
ratingclicks_within,44270,5,Liking,High,3.709917972,7.861,Female,21,No Difference,More,Mixed,2,1,0.9999999999999978
ratingclicks_within,44270,6,Liking,Medium,3.149142431,6.779,Female,21,No Difference,More,Mixed,2,1,0.9999999999999978
ratingclicks_within,44270,7,Liking,High,3.954511559,5.143,Female,21,No Difference,More,Mixed,2,1,0.9999999999999978
ratingclicks_within,44270,8,Liking,Medium,3.590604027,2.058,Female,21,No Difference,More,Mixed,2,1,0.9999999999999978
ratingclicks_within,44270,9,Liking,Low,2.486950037,3.135,Female,21,No Difference,More,Mixed,2,1,0.9999999999999978
ratingclicks_within,44270,10,Value,Medium,2.015659955,9.113,Female,21,No Difference,More,Mixed,2,1,0.9999999999999978
ratingclicks_within,44270,11,Value,Low,2.982102908,5.261,Female,21,No Difference,More,Mixed,2,1,0.9999999999999978
ratingclicks_within,44270,12,Value,High,2.976137211,9.07,Female,21,No Difference,More,Mixed,2,1,0.9999999999999978
ratingclicks_within,44270,13,Value,Medium,3.351976137,12.802,Female,21,No Difference,More,Mixed,2,1,0.9999999999999978
ratingclicks_within,44270,14,Value,High,2.970171514,11.465,Female,21,No Difference,More,Mixed,2,1,0.9999999999999978
ratingclicks_within,44270,15,Value,Low,2.534675615,7.931,Female,21,No Difference,More,Mixed,2,1,0.9999999999999978
ratingclicks_within,44270,16,Value,High,2.421327368,5.626,Female,21,No Difference,More,Mixed,2,1,0.9999999999999978
ratingclicks_within,44270,17,Value,Low,3.113348248,7.434,Female,21,No Difference,More,Mixed,2,1,0.9999999999999978
ratingclicks_within,44270,18,Value,Medium,3.322147651,6.104,Female,21,No Difference,More,Mixed,2,1,0.9999999999999978
ratingclicks_within,44571,1,Liking,Low,4.979259259,2.931,Female,21,More,More,Increasing,5,2.5,2.500000000000002
ratingclicks_within,44571,2,Liking,Medium,2.988148148,3.551,Female,21,More,More,Increasing,5,2.5,2.500000000000002
ratingclicks_within,44571,3,Liking,High,3.005925926,2.47,Female,21,More,More,Increasing,5,2.5,2.500000000000002
ratingclicks_within,44571,4,Liking,Low,1.957037037,2.535,Female,21,More,More,Increasing,5,2.5,2.500000000000002
ratingclicks_within,44571,5,Liking,High,1,3.051,Female,21,More,More,Increasing,5,2.5,2.500000000000002
ratingclicks_within,44571,6,Liking,Medium,1,3.533,Female,21,More,More,Increasing,5,2.5,2.500000000000002
ratingclicks_within,44571,7,Liking,High,2.988148148,1.885,Female,21,More,More,Increasing,5,2.5,2.500000000000002
ratingclicks_within,44571,8,Liking,Medium,1.962962963,1.935,Female,21,More,More,Increasing,5,2.5,2.500000000000002
ratingclicks_within,44571,9,Liking,Low,4.025185185,1.185,Female,21,More,More,Increasing,5,2.5,2.500000000000002
ratingclicks_within,44571,10,Value,Medium,1,6.536,Female,21,More,More,Increasing,5,2.5,2.500000000000002
ratingclicks_within,44571,11,Value,Low,1,4.986,Female,21,More,More,Increasing,5,2.5,2.500000000000002
ratingclicks_within,44571,12,Value,High,1,2.335,Female,21,More,More,Increasing,5,2.5,2.500000000000002
ratingclicks_within,44571,13,Value,Medium,1,3.202,Female,21,More,More,Increasing,5,2.5,2.500000000000002
ratingclicks_within,44571,14,Value,High,1,2.102,Female,21,More,More,Increasing,5,2.5,2.500000000000002
ratingclicks_within,44571,15,Value,Low,1,2.851,Female,21,More,More,Increasing,5,2.5,2.500000000000002
