experiment_name,id,trial,effort_level,effort_time,scale_first,scale_type,rt,rating,gender,age,nasa_tlx
effortratingclicks,37769,1,Low,18.882,Liking,Liking,4.582,3.958024993,Female,21,104
effortratingclicks,37769,1,Low,18.882,LikingValue,Value,6.7789,1.059259259,Female,21,104
effortratingclicks,37769,2,Medium,27.1732,Value,Value,5.91,2.580247215,Female,21,104
effortratingclicks,37769,2,Medium,27.1732,ValueLiking,Liking,1.9663,3.918518519,Female,21,104
effortratingclicks,37769,3,High,58.7576,Value,Value,4.0154,3.009876845,Female,21,104
effortratingclicks,37769,3,High,58.7576,ValueLiking,Liking,2.1842,2.2,Female,21,104
effortratingclicks,37769,4,Low,10.7788,Liking,Liking,2.6769,1.997531015,Female,21,104
effortratingclicks,37769,4,Low,10.7788,LikingValue,Value,2.267599999,1.439506248,Female,21,104
effortratingclicks,37769,5,High,54.5677,Value,Value,4.06,3.967901385,Female,21,104
effortratingclicks,37769,5,High,54.5677,ValueLiking,Liking,2.2134,3.009876845,Female,21,104
effortratingclicks,37769,6,Medium,26.5377,Value,Value,3.8166,1.9827162,Female,21,104
effortratingclicks,37769,6,Medium,26.5377,ValueLiking,Liking,1.2992,3.434568052,Female,21,104
effortratingclicks,37769,7,High,59.353,Value,Value,4.0864,3.923456941,Female,21,104
effortratingclicks,37769,7,High,59.353,ValueLiking,Liking,1.4365,3.291358326,Female,21,104
effortratingclicks,37769,8,Medium,26.3868,Liking,Liking,4.386900001,2.224691659,Female,21,104
effortratingclicks,37769,8,Medium,26.3868,LikingValue,Value,1.663900001,2.358024993,Female,21,104
effortratingclicks,37769,9,Low,9.674599999,Value,Value,2.695900001,1.385185185,Female,21,104
effortratingclicks,37769,9,Low,9.674599999,ValueLiking,Liking,1.6966,2.209876845,Female,21,104
effortratingclicks,37769,10,Medium,27.0354,Liking,Liking,3.8005,2.837037037,Female,21,104
effortratingclicks,37769,10,Medium,27.0354,LikingValue,Value,2.9946,2.925925926,Female,21,104
effortratingclicks,37769,11,Low,10.7232,Liking,Liking,2.1331,3.5827162,Female,21,104
effortratingclicks,37769,11,Low,10.7232,LikingValue,Value,1.451299999,2.851851852,Female,21,104
effortratingclicks,37769,12,High,54.8413,Liking,Liking,2.888,3.128395363,Female,21,104
effortratingclicks,37769,12,High,54.8413,LikingValue,Value,1.1493,4.62962963,Female,21,104
effortratingclicks,37769,13,Medium,26.7709,Liking,Liking,2.427799999,1.592592593,Female,21,104
effortratingclicks,37769,13,Medium,26.7709,LikingValue,Value,4.3105,1.138271756,Female,21,104
effortratingclicks,37769,14,High,59.0656,Value,Value,3.7668,1.533333333,Female,21,104
effortratingclicks,37769,14,High,59.0656,ValueLiking,Liking,0.800799999,3.291358326,Female,21,104
effortratingclicks,37769,15,Low,10.9302,Liking,Liking,2.903,1.706172915,Female,21,104
effortratingclicks,37769,15,Low,10.9302,LikingValue,Value,1.6401,1.879012496,Female,21,104
effortratingclicks,37769,16,High,58.967,Liking,Liking,3.203400001,3.804938422,Female,21,104
effortratingclicks,37769,16,High,58.967,LikingValue,Value,3.0863,2.9654324,Female,21,104
effortratingclicks,37769,17,Low,10.5848,Value,Value,3.8624,2.279012496,Female,21,104
effortratingclicks,37769,17,Low,10.5848,ValueLiking,Liking,2.3897,1.049382867,Female,21,104
effortratingclicks,37769,18,Medium,29.2075,Value,Value,5.846700001,3.1827162,Female,21,104
effortratingclicks,37769,18,Medium,29.2075,ValueLiking,Liking,1.6686,1.795061804,Female,21,104
effortratingclicks,43490,1,Low,17.0564,Liking,Liking,3.2765,1.969236111,Female,18,187
effortratingclicks,43490,1,Low,17.0564,LikingValue,Value,6.8999,2.522083333,Female,18,187
effortratingclicks,43490,2,Medium,26.7658,Liking,Liking,2.3435,2.481643519,Female,18,187
effortratingclicks,43490,2,Medium,26.7658,LikingValue,Value,2.8764,3.028842593,Female,18,187
effortratingclicks,43490,3,High,57.0007,Liking,Liking,1.7854,2.309861111,Female,18,187
effortratingclicks,43490,3,High,57.0007,LikingValue,Value,3.6738,1.897800926,Female,18,187
effortratingclicks,43490,4,Low,12.9478,Liking,Liking,1.5582,2.721898148,Female,18,187
effortratingclicks,43490,4,Low,12.9478,LikingValue,Value,1.4083,2.916041667,Female,18,187
effortratingclicks,43490,5,High,56.9343,Value,Value,3.5513,1.686435185,Female,18,187
effortratingclicks,43490,5,High,56.9343,ValueLiking,Liking,3.9166,1.522037037,Female,18,187
effortratingclicks,43490,6,Medium,24.066,Liking,Liking,4.5437,2.998935185,Female,18,187
effortratingclicks,43490,6,Medium,24.066,LikingValue,Value,3.3776,3.442407407,Female,18,187
effortratingclicks,43490,7,High,53.2944,Liking,Liking,3.0845,2.135162037,Female,18,187
effortratingclicks,43490,7,High,53.2944,LikingValue,Value,3.0482,2.571759259,Female,18,187
effortratingclicks,43490,8,Medium,52.1174,Liking,Liking,7.9216,1.948819444,Female,18,187
effortratingclicks,43490,8,Medium,52.1174,LikingValue,Value,1.7921,1.827106481,Female,18,187
effortratingclicks,43490,9,Low,22.2156,Value,Value,4.5048,3.597893519,Female,18,187
effortratingclicks,43490,9,Low,22.2156,ValueLiking,Liking,0.655,3.852615741,Female,18,187
effortratingclicks,43490,10,Medium,48.1008,Value,Value,4.034,1.836527778,Female,18,187
effortratingclicks,43490,10,Medium,48.1008,ValueLiking,Liking,0.6874,1.761203704,Female,18,187
effortratingclicks,43490,11,Low,14.7994,Value,Value,4.5009,4.046967593,Female,18,187
effortratingclicks,43490,11,Low,14.7994,ValueLiking,Liking,1.1766,3.956828704,Female,18,187
effortratingclicks,43490,12,High,70.268,Liking,Liking,1.7371,1.416342593,Female,18,187
effortratingclicks,43490,12,High,70.268,LikingValue,Value,1.8583,1.552384259,Female,18,187
effortratingclicks,43490,13,Medium,39.2669,Value,Value,3.5576,2.163726852,Female,18,187
effortratingclicks,43490,13,Medium,39.2669,ValueLiking,Liking,1.4409,2.300972222,Female,18,187
effortratingclicks,43490,14,High,63.1668,Value,Value,2.4177,1.154837963,Female,18,187
effortratingclicks,43490,14,High,63.1668,ValueLiking,Liking,1.1368,1.808935185,Female,18,187
effortratingclicks,43490,15,Low,9.1981,Value,Value,2.5518,2.943541667,Female,18,187
effortratingclicks,43490,15,Low,9.1981,ValueLiking,Liking,0.6884,2.874722222,Female,18,187
effortratingclicks,43490,16,High,60.332,Value,Value,2.6232,1.884976852,Female,18,187
effortratingclicks,43490,16,High,60.332,ValueLiking,Liking,0.5693,1.836435185,Female,18,187
effortratingclicks,43490,17,Low,10.1668,Value,Value,4.1371,3.088078704,Female,18,187
effortratingclicks,43490,17,Low,10.1668,ValueLiking,Liking,2.1073,3.629722222,Female,18,187
effortratingclicks,43490,18,Medium,24.2333,Value,Value,5.9277,2.099421296,Female,18,187
effortratingclicks,43490,18,Medium,24.2333,ValueLiking,Liking,0.7289,2.119699074,Female,18,187
effortratingclicks,35186,1,Low,12.3048,Liking,Liking,6.8584,2.021345727,Male,20,271
effortratingclicks,35186,1,Low,12.3048,LikingValue,Value,6.3664,1.055759307,Male,20,271
effortratingclicks,35186,2,Medium,27.168,Value,Value,5.4782,1.029822531,Male,20,271
effortratingclicks,35186,2,Medium,27.168,ValueLiking,Liking,2.3262,3.01206115,Male,20,271
effortratingclicks,35186,3,High,58.3147,Liking,Liking,2.9372,2.993255691,Male,20,271
effortratingclicks,35186,3,High,58.3147,LikingValue,Value,2.9406,2.973984857,Male,20,271
effortratingclicks,35186,4,Low,8.5851,Liking,Liking,2.7152,1.991382137,Male,20,271
effortratingclicks,35186,4,Low,8.5851,LikingValue,Value,1.7543,1.499778164,Male,20,271
effortratingclicks,35186,5,High,55.7256,Liking,Liking,4.4128,1.271443383,Male,20,271
effortratingclicks,35186,5,High,55.7256,LikingValue,Value,1.9023,1.199014395,Male,20,271
effortratingclicks,35186,6,Medium,27.2193,Value,Value,4.7131,3.001034433,Male,20,271
effortratingclicks,35186,6,Medium,27.2193,ValueLiking,Liking,5.9154,3.992962722,Male,20,271
effortratingclicks,35186,7,High,55.2438,Liking,Liking,5.3334,1.129067805,Male,20,271
effortratingclicks,35186,7,High,55.2438,LikingValue,Value,2.648,1.005392192,Male,20,271
effortratingclicks,35186,8,Medium,27.7148,Value,Value,2.8987,2.983567226,Male,20,271
effortratingclicks,35186,8,Medium,27.7148,ValueLiking,Liking,1.1724,1.979429495,Male,20,271
effortratingclicks,35186,9,Low,9.8123,Liking,Liking,2.6188,3.590253665,Male,20,271
effortratingclicks,35186,9,Low,9.8123,LikingValue,Value,4.7013,3.509372589,Male,20,271
effortratingclicks,35186,10,Medium,27.4594,Liking,Liking,3.0772,4.226249035,Male,20,271
effortratingclicks,35186,10,Medium,27.4594,LikingValue,Value,1.1131,2.854834587,Male,20,271
effortratingclicks,35186,11,Low,10.0792,Value,Value,3.2751,3.005819589,Male,20,271
effortratingclicks,35186,11,Low,10.0792,ValueLiking,Liking,0.7944,3.31848235,Male,20,271
effortratingclicks,35186,12,High,59.2699,Value,Value,2.5825,4.506951678,Male,20,271
effortratingclicks,35186,12,High,59.2699,ValueLiking,Liking,4.89,4.743353347,Male,20,271
effortratingclicks,35186,13,Medium,32.1809,Value,Value,9.2643,2.002649981,Male,20,271
effortratingclicks,35186,13,Medium,32.1809,ValueLiking,Liking,0.9688,2.616877652,Male,20,271
effortratingclicks,35186,14,High,62.9259,Value,Value,5.4206,1.294593943,Male,20,271
effortratingclicks,35186,14,High,62.9259,ValueLiking,Liking,5.4349,1.482922213,Male,20,271
effortratingclicks,35186,15,Low,9.7324,Liking,Liking,2.2204,4.000915075,Male,20,271
effortratingclicks,35186,15,Low,9.7324,LikingValue,Value,1.9395,2.511379967,Male,20,271
effortratingclicks,35186,16,High,50.4817,Liking,Liking,3.7023,4.499632282,Male,20,271
effortratingclicks,35186,16,High,50.4817,LikingValue,Value,4.633,1.468706597,Male,20,271
effortratingclicks,35186,17,Low,10.8675,Liking,Liking,7.2456,3.397466966,Male,20,271
effortratingclicks,35186,17,Low,10.8675,LikingValue,Value,1.008,2.446591676,Male,20,271
effortratingclicks,35186,18,Medium,28.0739,Value,Value,5.3919,4.033402054,Male,20,271
effortratingclicks,35186,18,Medium,28.0739,ValueLiking,Liking,1.1762,4.999512924,Male,20,271
effortratingclicks,38665,1,Low,20.0038,Liking,Liking,4.2717,1.133333371,Male,19,319
effortratingclicks,38665,1,Low,20.0038,LikingValue,Value,3.2886,2.733333258,Male,19,319
effortratingclicks,38665,2,Medium,46.1802,Value,Value,6.46,1.232098803,Male,19,319
effortratingclicks,38665,2,Medium,46.1802,ValueLiking,Liking,3.0631,3.024691358,Male,19,319
effortratingclicks,38665,3,High,64.8785,Value,Value,4.8019,2.362962888,Male,19,319
effortratingclicks,38665,3,High,64.8785,ValueLiking,Liking,2.6627,3.439506248,Male,19,319
effortratingclicks,38665,4,Low,13.3515,Value,Value,3.4885,3.977777928,Male,19,319
effortratingclicks,38665,4,Low,13.3515,ValueLiking,Liking,6.1213,4.308641975,Male,19,319
effortratingclicks,38665,5,High,122.9349,Liking,Liking,3.0447,4.944781474,Male,19,319
effortratingclicks,38665,5,High,122.9349,LikingValue,Value,1.6416,2.98383863,Male,19,319
effortratingclicks,38665,6,Medium,32.881100000000004,Value,Value,1.7082,1,Male,19,319
effortratingclicks,38665,6,Medium,32.881100000000004,ValueLiking,Liking,1.4367,1.022895582,Male,19,319
effortratingclicks,38665,7,High,78.6435,Value,Value,3.0859,3.527946292,Male,19,319
effortratingclicks,38665,7,High,78.6435,ValueLiking,Liking,1.2043,4.826263119,Male,19,319
effortratingclicks,38665,8,Medium,36.583,Value,Value,2.1735,4.842424078,Male,19,319
effortratingclicks,38665,8,Medium,36.583,ValueLiking,Liking,0.91,1.410774411,Male,19,319
effortratingclicks,38665,9,Low,16.2594,Liking,Liking,4.2886,1.071380512,Male,19,319
effortratingclicks,38665,9,Low,16.2594,LikingValue,Value,0.4164,3.781144781,Male,19,319
effortratingclicks,38665,10,Medium,28.0648,Value,Value,2.3328,3.527946292,Male,19,319
effortratingclicks,38665,10,Medium,28.0648,ValueLiking,Liking,4.7738,5,Male,19,319
effortratingclicks,38665,11,Low,13.1725,Liking,Liking,1.9901,3.03232315,Male,19,319
effortratingclicks,38665,11,Low,13.1725,LikingValue,Value,3.3102,2.768350415,Male,19,319
effortratingclicks,38665,12,High,56.0303,Liking,Liking,2.6484,4.492256139,Male,19,319
effortratingclicks,38665,12,High,56.0303,LikingValue,Value,0.6207,3.312458077,Male,19,319
effortratingclicks,38665,13,Medium,31.7811,Value,Value,2.937,4.939393939,Male,19,319
effortratingclicks,38665,13,Medium,31.7811,ValueLiking,Liking,0.2615,1.99797988,Male,19,319
effortratingclicks,38665,14,High,55.5945,Value,Value,3.3784,3.840403958,Male,19,319
effortratingclicks,38665,14,High,55.5945,ValueLiking,Liking,2.6731,5,Male,19,319
effortratingclicks,38665,15,Low,16.6987,Value,Value,6.4611,4.750841751,Male,19,319
effortratingclicks,38665,15,Low,16.6987,ValueLiking,Liking,4.643,3.597979716,Male,19,319
effortratingclicks,38665,16,High,83.7193,Liking,Liking,2.3438,4.917845447,Male,19,319
effortratingclicks,38665,16,High,83.7193,LikingValue,Value,1.9563,1.049831609,Male,19,319
effortratingclicks,38665,17,Low,9.7518,Value,Value,0.9136,4.372839657,Male,19,319
effortratingclicks,38665,17,Low,9.7518,ValueLiking,Liking,0.6487,1.320987654,Male,19,319
effortratingclicks,38665,18,Medium,28.8693,Value,Value,2.6138,2.535802394,Male,19,319
effortratingclicks,38665,18,Medium,28.8693,ValueLiking,Liking,1.0388,4.866666817,Male,19,319
effortratingclicks,44157,1,Low,13.2673,Liking,Liking,5.7955,3.969375,Female,20,92
effortratingclicks,44157,1,Low,13.2673,LikingValue,Value,5.0936,2.911666667,Female,20,92
effortratingclicks,44157,2,Medium,34.4131,Liking,Liking,6.6805,1.015648148,Female,20,92
effortratingclicks,44157,2,Medium,34.4131,LikingValue,Value,2.9936,1.952476852,Female,20,92
effortratingclicks,44157,3,High,74.448,Value,Value,2.4574,1.027476852,Female,20,92
effortratingclicks,44157,3,High,74.448,ValueLiking,Liking,1.5841,1.01462963,Female,20,92
effortratingclicks,44157,4,Low,17.0318,Liking,Liking,2.7818,4.954143519,Female,20,92
effortratingclicks,44157,4,Low,17.0318,LikingValue,Value,1.9582,4.022222222,Female,20,92
effortratingclicks,44157,5,High,65.1506,Liking,Liking,1.1649,1.977638889,Female,20,92
effortratingclicks,44157,5,High,65.1506,LikingValue,Value,2.4052,2.957013889,Female,20,92
effortratingclicks,44157,6,Medium,26.3485,Liking,Liking,0.9896,1.987106481,Female,20,92
effortratingclicks,44157,6,Medium,26.3485,LikingValue,Value,1.0641,4.036412037,Female,20,92
effortratingclicks,44157,7,High,63.0487,Value,Value,23.7785,3.978216096,Female,20,92
effortratingclicks,44157,7,High,63.0487,ValueLiking,Liking,76.4113,4.074883819,Female,20,92
effortratingclicks,44157,8,Medium,28.0172,Liking,Liking,2.4645,2.996461766,Female,20,92
effortratingclicks,44157,8,Medium,28.0172,LikingValue,Value,0.9465,3.937473595,Female,20,92
effortratingclicks,44157,9,Low,10.4154,Value,Value,2.5472,3.956220955,Female,20,92
effortratingclicks,44157,9,Low,10.4154,ValueLiking,Liking,2.1807,4.974466624,Female,20,92
effortratingclicks,44157,10,Medium,50.0806,Value,Value,1.1307,1.978136882,Female,20,92
effortratingclicks,44157,10,Medium,50.0806,ValueLiking,Liking,0.8116,2.216228348,Female,20,92
effortratingclicks,44157,11,Low,10.0206,Liking,Liking,1.6079,3.691091044,Female,20,92
effortratingclicks,44157,11,Low,10.0206,LikingValue,Value,0.846,3.738883608,Female,20,92
effortratingclicks,44157,12,High,79.9645,Liking,Liking,16.6388,3.499260668,Female,20,92
effortratingclicks,44157,12,High,79.9645,LikingValue,Value,1.4307,4.388440008,Female,20,92
effortratingclicks,44157,13,Medium,37.9647,Liking,Liking,0.992,3.17622518,Female,20,92
effortratingclicks,44157,13,Medium,37.9647,LikingValue,Value,1.5709,3.871673004,Female,20,92
effortratingclicks,44157,14,High,69.8823,Value,Value,1.6992,2.7790188,Female,20,92
effortratingclicks,44157,14,High,69.8823,ValueLiking,Liking,1.2595,4.171947613,Female,20,92
effortratingclicks,44157,15,Low,24.8659,Value,Value,2.6789,3.574038868,Female,20,92
effortratingclicks,44157,15,Low,24.8659,ValueLiking,Liking,1.0795,4.302545416,Female,20,92
effortratingclicks,44157,16,High,76.4145,Value,Value,3.6649,1.004251162,Female,20,92
effortratingclicks,44157,16,High,76.4145,ValueLiking,Liking,1.6615,1.055212294,Female,20,92
effortratingclicks,44157,17,Low,11.5979,Value,Value,21.915,1.024213139,Female,20,92
effortratingclicks,44157,17,Low,11.5979,ValueLiking,Liking,1.7848,1.032213773,Female,20,92
effortratingclicks,44157,18,Medium,36.8656,Value,Value,1.1351,3.4704267,Female,20,92
effortratingclicks,44157,18,Medium,36.8656,ValueLiking,Liking,0.6163,3.439084284,Female,20,92
effortratingclicks,38497,1,Low,19.705,Value,Value,7.732,1,Female,21,182
effortratingclicks,38497,1,Low,19.705,ValueLiking,Liking,5.71,1.002962963,Female,21,182
effortratingclicks,38497,2,Medium,32.382,Liking,Liking,2.912,2.022222222,Female,21,182
effortratingclicks,38497,2,Medium,32.382,LikingValue,Value,3.077,1.020740741,Female,21,182
effortratingclicks,38497,3,High,75.965,Value,Value,17.127,1.014814815,Female,21,182
effortratingclicks,38497,3,High,75.965,ValueLiking,Liking,5.514,1.992592593,Female,21,182
effortratingclicks,38497,4,Low,16.132,Value,Value,9.755,2.982222222,Female,21,182
effortratingclicks,38497,4,Low,16.132,ValueLiking,Liking,1.535,4.084444444,Female,21,182
effortratingclicks,38497,5,High,60.914,Liking,Liking,1.353,1.068148148,Female,21,182
effortratingclicks,38497,5,High,60.914,LikingValue,Value,0.787,1.08,Female,21,182
effortratingclicks,38497,6,Medium,31.9,Liking,Liking,2.095,3.017777778,Female,21,182
effortratingclicks,38497,6,Medium,31.9,LikingValue,Value,0.72,2.045925926,Female,21,182
effortratingclicks,38497,7,High,54.232,Liking,Liking,1.552,3.005925926,Female,21,182
effortratingclicks,38497,7,High,54.232,LikingValue,Value,0.772,2.004444444,Female,21,182
effortratingclicks,38497,8,Medium,31.083,Liking,Liking,1.342,2.887407407,Female,21,182
effortratingclicks,38497,8,Medium,31.083,LikingValue,Value,0.737,2.413333333,Female,21,182
effortratingclicks,38497,9,Low,8.9,Liking,Liking,1.147,3.877037037,Female,21,182
effortratingclicks,38497,9,Low,8.9,LikingValue,Value,0.588,3.260740741,Female,21,182
effortratingclicks,38497,10,Medium,26.899,Liking,Liking,13.621,2.442962963,Female,21,182
effortratingclicks,38497,10,Medium,26.899,LikingValue,Value,2.888,2.265185185,Female,21,182
effortratingclicks,38497,11,Low,10.082,Liking,Liking,0.777,3.34962963,Female,21,182
effortratingclicks,38497,11,Low,10.082,LikingValue,Value,0.554,2.828148148,Female,21,182
effortratingclicks,38497,12,High,51.081,Liking,Liking,0.989,3.367407407,Female,21,182
effortratingclicks,38497,12,High,51.081,LikingValue,Value,0.837,3.764444444,Female,21,182
effortratingclicks,38497,13,Medium,23.482,Value,Value,1.189,2.68,Female,21,182
effortratingclicks,38497,13,Medium,23.482,ValueLiking,Liking,0.527,2.128888889,Female,21,182
effortratingclicks,38497,14,High,55.332,Value,Value,1.271,2.045925926,Female,21,182
effortratingclicks,38497,14,High,55.332,ValueLiking,Liking,0.903,2.342222222,Female,21,182
effortratingclicks,38497,15,Low,10.383,Value,Value,2.186,3.96,Female,21,182
effortratingclicks,38497,15,Low,10.383,ValueLiking,Liking,0.637,4.143703704,Female,21,182
effortratingclicks,38497,16,High,55.149,Value,Value,2.028,1.737777778,Female,21,182
effortratingclicks,38497,16,High,55.149,ValueLiking,Liking,2.772,1.127407407,Female,21,182
effortratingclicks,38497,17,Low,10.416,Liking,Liking,1.704,2.875555556,Female,21,182
effortratingclicks,38497,17,Low,10.416,LikingValue,Value,0.627,2.194074074,Female,21,182
effortratingclicks,38497,18,Medium,25.983,Value,Value,1.96,1.002962963,Female,21,182
effortratingclicks,38497,18,Medium,25.983,ValueLiking,Liking,0.754,1.008888889,Female,21,182
effortratingclicks,36858,1,Low,18.4853,Liking,Liking,5.9601,3.014210431,Female,23,234
effortratingclicks,36858,1,Low,18.4853,LikingValue,Value,4.2186,2.003862486,Female,23,234
effortratingclicks,36858,2,Medium,28.6878,Liking,Liking,5.5019,4.020977648,Female,23,234
effortratingclicks,36858,2,Medium,28.6878,LikingValue,Value,2.4255,3.060607639,Female,23,234
effortratingclicks,36858,3,High,61.123,Value,Value,3.7633,3.997400535,Female,23,234
effortratingclicks,36858,3,High,61.123,ValueLiking,Liking,3.3399,3.988994141,Female,23,234
effortratingclicks,36858,4,Low,11.3044,Liking,Liking,8.2697,2.07987594,Female,23,234
effortratingclicks,36858,4,Low,11.3044,LikingValue,Value,1.8755,2.079598886,Female,23,234
effortratingclicks,36858,5,High,64.337,Liking,Liking,8.4258,3.071657986,Female,23,234
effortratingclicks,36858,5,High,64.337,LikingValue,Value,3.3601,4.128572772,Female,23,234
effortratingclicks,36858,6,Medium,29.1395,Value,Value,5.0763,3.018629919,Female,23,234
effortratingclicks,36858,6,Medium,29.1395,ValueLiking,Liking,4.5555,4.067812862,Female,23,234
effortratingclicks,36858,7,High,58.071,Value,Value,1.7913,4.989565972,Female,23,234
effortratingclicks,36858,7,High,58.071,ValueLiking,Liking,2.5624,3.873893229,Female,23,234
effortratingclicks,36858,8,Medium,32.4415,Value,Value,2.1078,4.003726128,Female,23,234
effortratingclicks,36858,8,Medium,32.4415,ValueLiking,Liking,3.6588,3.62038303,Female,23,234
effortratingclicks,36858,9,Low,10.1067,Value,Value,3.7584,2.498963759,Female,23,234
effortratingclicks,36858,9,Low,10.1067,ValueLiking,Liking,2.3785,3.24442419,Female,23,234
effortratingclicks,36858,10,Medium,41.8549,Value,Value,13.2814,3.419562355,Female,23,234
effortratingclicks,36858,10,Medium,41.8549,ValueLiking,Liking,3.1538,4.12336046,Female,23,234
effortratingclicks,36858,11,Low,14.571,Liking,Liking,4.1533,3.428948206,Female,23,234
effortratingclicks,36858,11,Low,14.571,LikingValue,Value,0.9242,2.571917318,Female,23,234
effortratingclicks,36858,12,High,56.3202,Value,Value,12.7928,3.609662182,Female,23,234
effortratingclicks,36858,12,High,56.3202,ValueLiking,Liking,1.0911,4.721393591,Female,23,234
effortratingclicks,36858,13,Medium,29.6045,Value,Value,1.3571,4.797590061,Female,23,234
effortratingclicks,36858,13,Medium,29.6045,ValueLiking,Liking,0.6054,4.506145833,Female,23,234
effortratingclicks,36858,14,High,62.4381,Liking,Liking,2.3256,4.554563802,Female,23,234
effortratingclicks,36858,14,High,62.4381,LikingValue,Value,1.0768,4.965062211,Female,23,234
effortratingclicks,36858,15,Low,11.3056,Value,Value,6.7925,4.061125579,Female,23,234
effortratingclicks,36858,15,Low,11.3056,ValueLiking,Liking,1.1423,2.435276693,Female,23,234
effortratingclicks,36858,16,High,66.4206,Liking,Liking,13.3357,3.608516348,Female,23,234
effortratingclicks,36858,16,High,66.4206,LikingValue,Value,2.591,2.341484013,Female,23,234
effortratingclicks,36858,17,Low,11.8711,Liking,Liking,3.8858,2.356225043,Female,23,234
effortratingclicks,36858,17,Low,11.8711,LikingValue,Value,2.1761,1.481832501,Female,23,234
effortratingclicks,36858,18,Medium,42.5714,Liking,Liking,5.0099,4.008247975,Female,23,234
effortratingclicks,36858,18,Medium,42.5714,LikingValue,Value,1.6157,2.718887442,Female,23,234
effortratingclicks,44080,1,Low,25.6048,Value,Value,5.6716,3.041305339,Female,19,73
effortratingclicks,44080,1,Low,25.6048,ValueLiking,Liking,5.51,2.037170862,Female,19,73
effortratingclicks,44080,2,Medium,36.237,Liking,Liking,3.45,1.922455512,Female,19,73
effortratingclicks,44080,2,Medium,36.237,LikingValue,Value,3.9734,1.079848633,Female,19,73
effortratingclicks,44080,3,High,70.4186,Value,Value,2.907,1.008079608,Female,19,73
effortratingclicks,44080,3,High,70.4186,ValueLiking,Liking,2.1298,2.020971499,Female,19,73
effortratingclicks,44080,4,Low,9.7816,Value,Value,2.2019,2.961737831,Female,19,73
effortratingclicks,44080,4,Low,9.7816,ValueLiking,Liking,1.0171,1.940585602,Female,19,73
effortratingclicks,44080,5,High,54.9384,Value,Value,4.045,2.009251947,Female,19,73
effortratingclicks,44080,5,High,54.9384,ValueLiking,Liking,1.3431,1.978052741,Female,19,73
effortratingclicks,44080,6,Medium,27.6127,Value,Value,2.091,1.95784704,Female,19,73
effortratingclicks,44080,6,Medium,27.6127,ValueLiking,Liking,2.0295,1.09566514,Female,19,73
effortratingclicks,44080,7,High,61.0318,Value,Value,2.9614,1.964817249,Female,19,73
effortratingclicks,44080,7,High,61.0318,ValueLiking,Liking,2.4418,1.988203514,Female,19,73
effortratingclicks,44080,8,Medium,28.0937,Liking,Liking,1.276,1.986567959,Female,19,73
effortratingclicks,44080,8,Medium,28.0937,LikingValue,Value,0.7013,1.034889031,Female,19,73
effortratingclicks,44080,9,Low,9.9429,Liking,Liking,1.843,4.044051758,Female,19,73
effortratingclicks,44080,9,Low,9.9429,LikingValue,Value,1.0413,4.032389544,Female,19,73
effortratingclicks,44080,10,Medium,27.3309,Value,Value,1.9138,2.993399922,Female,19,73
effortratingclicks,44080,10,Medium,27.3309,ValueLiking,Liking,1.7584,2.972502986,Female,19,73
effortratingclicks,44080,11,Low,9.5656,Liking,Liking,2.7467,4.945538642,Female,19,73
effortratingclicks,44080,11,Low,9.5656,LikingValue,Value,2.8034,4.971502572,Female,19,73
effortratingclicks,44080,12,High,56.1189,Liking,Liking,1.8891,1.017426186,Female,19,73
effortratingclicks,44080,12,High,56.1189,LikingValue,Value,1.1093,1.107378148,Female,19,73
effortratingclicks,44080,13,Medium,29.8269,Liking,Liking,2.1229,1.985908967,Female,19,73
effortratingclicks,44080,13,Medium,29.8269,LikingValue,Value,1.7967,1.989653561,Female,19,73
effortratingclicks,44080,14,High,54.7252,Liking,Liking,3.1026,1.004231771,Female,19,73
effortratingclicks,44080,14,High,54.7252,LikingValue,Value,1.3688,1.042377777,Female,19,73
effortratingclicks,44080,15,Low,13.329,Liking,Liking,7.1635,4.940437196,Female,19,73
effortratingclicks,44080,15,Low,13.329,LikingValue,Value,0.8273,4.96466266,Female,19,73
effortratingclicks,44080,16,High,58.6654,Value,Value,6.6775,2.070204729,Female,19,73
effortratingclicks,44080,16,High,58.6654,ValueLiking,Liking,0.5085,1.97569945,Female,19,73
effortratingclicks,44080,17,Low,11.9011,Value,Value,2.5398,4.999697888,Female,19,73
effortratingclicks,44080,17,Low,11.9011,ValueLiking,Liking,1.3639,4.944344329,Female,19,73
effortratingclicks,44080,18,Medium,28.7276,Liking,Liking,1.0067,2.953113075,Female,19,73
effortratingclicks,44080,18,Medium,28.7276,LikingValue,Value,0.6179,2.966361817,Female,19,73
effortratingclicks,42197,1,Low,46.7858,Liking,Liking,4.9912,1.014814777,Female,19,192
effortratingclicks,42197,1,Low,46.7858,LikingValue,Value,4.3746,1.162962925,Female,19,192
effortratingclicks,42197,2,Medium,31.2754,Liking,Liking,4.2592,1.311111073,Female,19,192
effortratingclicks,42197,2,Medium,31.2754,LikingValue,Value,1.9352,1.434568052,Female,19,192
effortratingclicks,42197,3,High,103.2678,Liking,Liking,2.9723,1.53827168,Female,19,192
effortratingclicks,42197,3,High,103.2678,LikingValue,Value,1.6822,1.533333484,Female,19,192
effortratingclicks,42197,4,Low,13.4331,Liking,Liking,5.0835,1.41481489,Female,19,192
effortratingclicks,42197,4,Low,13.4331,LikingValue,Value,1.5424,1.306172877,Female,19,192
effortratingclicks,42197,5,High,89.7707,Liking,Liking,4.6795,1.464197606,Female,19,192
effortratingclicks,42197,5,High,89.7707,LikingValue,Value,1.9945,1.53827168,Female,19,192
effortratingclicks,42197,6,Medium,37.1647,Liking,Liking,3.1164,1.666666667,Female,19,192
effortratingclicks,42197,6,Medium,37.1647,LikingValue,Value,2.3841,1.656790274,Female,19,192
effortratingclicks,42197,7,High,83.1525,Liking,Liking,2.9541,1.671604863,Female,19,192
effortratingclicks,42197,7,High,83.1525,LikingValue,Value,2.1098,1.641975309,Female,19,192
effortratingclicks,42197,8,Medium,92.2781,Value,Value,2.7246,1.66172847,Female,19,192
effortratingclicks,42197,8,Medium,92.2781,ValueLiking,Liking,1.4595,1.701234794,Female,19,192
effortratingclicks,42197,9,Low,35.763,Liking,Liking,6.4065,1.602469362,Female,19,192
effortratingclicks,42197,9,Low,35.763,LikingValue,Value,9.471,1.720987579,Female,19,192
effortratingclicks,42197,10,Medium,98.5991,Liking,Liking,3.0188,1.375308755,Female,19,192
effortratingclicks,42197,10,Medium,98.5991,LikingValue,Value,1.9703,1.409876506,Female,19,192
effortratingclicks,42197,11,Low,13.8797,Value,Value,3.5101,1.404938309,Female,19,192
effortratingclicks,42197,11,Low,13.8797,ValueLiking,Liking,1.3305,1.464197606,Female,19,192
effortratingclicks,42197,12,High,71.4657,Liking,Liking,5.5416,1.380246951,Female,19,192
effortratingclicks,42197,12,High,71.4657,LikingValue,Value,2.049,1.533333484,Female,19,192
effortratingclicks,42197,13,Medium,34.3161,Value,Value,3.9572,1.424691283,Female,19,192
effortratingclicks,42197,13,Medium,34.3161,ValueLiking,Liking,2.6591,1.469135802,Female,19,192
effortratingclicks,42197,14,High,69.6508,Value,Value,2.5944,1.380246951,Female,19,192
effortratingclicks,42197,14,High,69.6508,ValueLiking,Liking,1.4509,1.508642126,Female,19,192
effortratingclicks,42197,15,Low,24.3754,Liking,Liking,5.1132,1.513580322,Female,19,192
effortratingclicks,42197,15,Low,24.3754,LikingValue,Value,3.7541,1.558024842,Female,19,192
effortratingclicks,42197,16,High,71.7434,Value,Value,3.517,1.479012572,Female,19,192
effortratingclicks,42197,16,High,71.7434,ValueLiking,Liking,2.1377,1.469135802,Female,19,192
effortratingclicks,42197,17,Low,20.9877,Liking,Liking,5.032,1.498765357,Female,19,192
effortratingclicks,42197,17,Low,20.9877,LikingValue,Value,1.5048,1.528395288,Female,19,192
effortratingclicks,42197,18,Medium,38.4289,Liking,Liking,4.3531,1.716049383,Female,19,192
effortratingclicks,42197,18,Medium,38.4289,LikingValue,Value,1.5531,1.671604863,Female,19,192
effortratingclicks,42351,1,Low,13.1523,Value,Value,2.7204,1.987592593,Female,22,482
effortratingclicks,42351,1,Low,13.1523,ValueLiking,Liking,3.7668,2.123587963,Female,22,482
effortratingclicks,42351,2,Medium,26.7386,Liking,Liking,5.6742,2.011805556,Female,22,482
effortratingclicks,42351,2,Medium,26.7386,LikingValue,Value,3.1065,3.993148148,Female,22,482
effortratingclicks,42351,3,High,63.8374,Liking,Liking,3.6404,1.012662037,Female,22,482
effortratingclicks,42351,3,High,63.8374,LikingValue,Value,2.1061,4.035625,Female,22,482
effortratingclicks,42351,4,Low,13.4391,Liking,Liking,6.6815,4.893148148,Female,22,482
effortratingclicks,42351,4,Low,13.4391,LikingValue,Value,4.9025,1.94099537,Female,22,482
effortratingclicks,42351,5,High,67.9524,Value,Value,1.087,1.946828704,Female,22,482
effortratingclicks,42351,5,High,67.9524,ValueLiking,Liking,0.9243,3.001111111,Female,22,482
effortratingclicks,42351,6,Medium,36.5543,Liking,Liking,5.437,1.896527778,Female,22,482
effortratingclicks,42351,6,Medium,36.5543,LikingValue,Value,2.8223,3.049351852,Female,22,482
effortratingclicks,42351,7,High,66.9392,Liking,Liking,0.992,3.026388889,Female,22,482
effortratingclicks,42351,7,High,66.9392,LikingValue,Value,0.8745,1.983171296,Female,22,482
effortratingclicks,42351,8,Medium,30.5214,Value,Value,2.7286,2.97474537,Female,22,482
effortratingclicks,42351,8,Medium,30.5214,ValueLiking,Liking,2.2401,3.972523148,Female,22,482
effortratingclicks,42351,9,Low,12.8221,Liking,Liking,1.84,4.951296296,Female,22,482
effortratingclicks,42351,9,Low,12.8221,LikingValue,Value,1.6909,4.705925926,Female,22,482
effortratingclicks,42351,10,Medium,32.9708,Value,Value,5.5793,2.938078704,Female,22,482
effortratingclicks,42351,10,Medium,32.9708,ValueLiking,Liking,1.3937,1.303518519,Female,22,482
effortratingclicks,42351,11,Low,15.1051,Value,Value,6.0005,3.980185185,Female,22,482
effortratingclicks,42351,11,Low,15.1051,ValueLiking,Liking,1.2461,1.974027778,Female,22,482
effortratingclicks,42351,12,High,62.9883,Value,Value,1.3576,4.070601852,Female,22,482
effortratingclicks,42351,12,High,62.9883,ValueLiking,Liking,1.6383,2.098912037,Female,22,482
effortratingclicks,42351,13,Medium,35.6697,Value,Value,1.074,3.146388889,Female,22,482
effortratingclicks,42351,13,Medium,35.6697,ValueLiking,Liking,0.5566,3.970555556,Female,22,482
effortratingclicks,42351,14,High,85.0386,Liking,Liking,1.4781,3.973587963,Female,22,482
effortratingclicks,42351,14,High,85.0386,LikingValue,Value,0.8913,4.018726852,Female,22,482
effortratingclicks,42351,15,Low,17.4712,Value,Value,3.0717,1.957893519,Female,22,482
effortratingclicks,42351,15,Low,17.4712,ValueLiking,Liking,0.5728,4.114560185,Female,22,482
effortratingclicks,42351,16,High,91.8205,Value,Value,1.973,1.691736111,Female,22,482
effortratingclicks,42351,16,High,91.8205,ValueLiking,Liking,0.5758,3.914953704,Female,22,482
effortratingclicks,42351,17,Low,17.1041,Liking,Liking,1.8038,3.024305556,Female,22,482
effortratingclicks,42351,17,Low,17.1041,LikingValue,Value,0.9918,4.072013889,Female,22,482
effortratingclicks,42351,18,Medium,54.4555,Liking,Liking,1.6247,4.015717593,Female,22,482
effortratingclicks,42351,18,Medium,54.4555,LikingValue,Value,0.5919,1.920046296,Female,22,482
effortratingclicks,36998,1,Low,20.8763,Liking,Liking,8.1737,1.958333333,Female,20,229
effortratingclicks,36998,1,Low,20.8763,LikingValue,Value,5.9041,1.984375,Female,20,229
effortratingclicks,36998,2,Medium,70.3355,Liking,Liking,4.6922,2.984375,Female,20,229
effortratingclicks,36998,2,Medium,70.3355,LikingValue,Value,2.1849,3.005208333,Female,20,229
effortratingclicks,36998,3,High,76.4027,Value,Value,7.147,2.984375,Female,20,229
effortratingclicks,36998,3,High,76.4027,ValueLiking,Liking,1.5049,3.026041667,Female,20,229
effortratingclicks,36998,4,Low,11.3002,Liking,Liking,3.0674,3.015625,Female,20,229
effortratingclicks,36998,4,Low,11.3002,LikingValue,Value,4.277,4.010416667,Female,20,229
effortratingclicks,36998,5,High,75.1362,Value,Value,6.4795,2.005208333,Female,20,229
effortratingclicks,36998,5,High,75.1362,ValueLiking,Liking,5.137,1.963541667,Female,20,229
effortratingclicks,36998,6,Medium,35.5688,Liking,Liking,4.7156,4.984375,Female,20,229
effortratingclicks,36998,6,Medium,35.5688,LikingValue,Value,2.8575,4.979166667,Female,20,229
effortratingclicks,36998,7,High,61.5201,Liking,Liking,3.1371000000000002,3.005208333,Female,20,229
effortratingclicks,36998,7,High,61.5201,LikingValue,Value,1.4695,2.984375,Female,20,229
effortratingclicks,36998,8,Medium,38.6496,Value,Value,4.7191,3.046875,Female,20,229
effortratingclicks,36998,8,Medium,38.6496,ValueLiking,Liking,1.3982,3.041666667,Female,20,229
effortratingclicks,36998,9,Low,16.2845,Value,Value,18.9879,4.984375,Female,20,229
effortratingclicks,36998,9,Low,16.2845,ValueLiking,Liking,3.2738,4,Female,20,229
effortratingclicks,36998,10,Medium,31.2683,Liking,Liking,9.7507,2.984375,Female,20,229
effortratingclicks,36998,10,Medium,31.2683,LikingValue,Value,2.1666,1.984375,Female,20,229
effortratingclicks,36998,11,Low,14.392,Liking,Liking,1.8451,2.984375,Female,20,229
effortratingclicks,36998,11,Low,14.392,LikingValue,Value,1.2092,2.984375,Female,20,229
effortratingclicks,36998,12,High,81.4813,Value,Value,9.26,1,Female,20,229
effortratingclicks,36998,12,High,81.4813,ValueLiking,Liking,7.5221,1.020833333,Female,20,229
effortratingclicks,36998,13,Medium,32.7437,Value,Value,8.8872,4.96875,Female,20,229
effortratingclicks,36998,13,Medium,32.7437,ValueLiking,Liking,1.7003,4.979166667,Female,20,229
effortratingclicks,36998,14,High,64.1868,Value,Value,1.6836,2.005208333,Female,20,229
effortratingclicks,36998,14,High,64.1868,ValueLiking,Liking,0.986,1.947916667,Female,20,229
effortratingclicks,36998,15,Low,11.18,Liking,Liking,8.8259,2.994791667,Female,20,229
effortratingclicks,36998,15,Low,11.18,LikingValue,Value,3.0234,1.96875,Female,20,229
effortratingclicks,36998,16,High,61.6695,Liking,Liking,3.3807,4.96875,Female,20,229
effortratingclicks,36998,16,High,61.6695,LikingValue,Value,0.9848,2.994791667,Female,20,229
effortratingclicks,36998,17,Low,18.3,Liking,Liking,2.4855,2.963541667,Female,20,229
effortratingclicks,36998,17,Low,18.3,LikingValue,Value,0.8513,2.020833333,Female,20,229
effortratingclicks,36998,18,Medium,27.6843,Liking,Liking,7.6077,1.984375,Female,20,229
effortratingclicks,36998,18,Medium,27.6843,LikingValue,Value,4.6537,1.994791667,Female,20,229
effortratingclicks,27041,1,Low,22.1748,Liking,Liking,5.1979,1.977777928,Male,22,110
effortratingclicks,27041,1,Low,22.1748,LikingValue,Value,4.491,1.029629743,Male,22,110
effortratingclicks,27041,2,Medium,37.14,Value,Value,1.784,1,Male,22,110
effortratingclicks,27041,2,Medium,37.14,ValueLiking,Liking,3.3913,1,Male,22,110
effortratingclicks,27041,3,High,55.6957,Value,Value,1.9634,1.014814777,Male,22,110
effortratingclicks,27041,3,High,55.6957,ValueLiking,Liking,3.2957,3.039506324,Male,22,110
effortratingclicks,27041,4,Low,12.0451,Liking,Liking,2.7706,3.977777928,Male,22,110
effortratingclicks,27041,4,Low,12.0451,LikingValue,Value,3.3462,1.04444452,Male,22,110
effortratingclicks,27041,5,High,62.1519,Value,Value,4.2151,1.014814777,Male,22,110
effortratingclicks,27041,5,High,62.1519,ValueLiking,Liking,0.6367,1.098765432,Male,22,110
effortratingclicks,27041,6,Medium,26.1328,Value,Value,3.7467,1.074074074,Male,22,110
effortratingclicks,27041,6,Medium,26.1328,ValueLiking,Liking,0.5996,4.066666591,Male,22,110
effortratingclicks,27041,7,High,82.4837,Liking,Liking,6.1971,1.024691358,Male,22,110
effortratingclicks,27041,7,High,82.4837,LikingValue,Value,0.6786,1.034567939,Male,22,110
effortratingclicks,27041,8,Medium,46.6977,Value,Value,2.1421,1.034567939,Male,22,110
effortratingclicks,27041,8,Medium,46.6977,ValueLiking,Liking,1.4776,1.024691358,Male,22,110
effortratingclicks,27041,9,Low,13.7774,Liking,Liking,3.6572,2.027160645,Male,22,110
effortratingclicks,27041,9,Low,13.7774,LikingValue,Value,0.8068,1.009876581,Male,22,110
effortratingclicks,27041,10,Medium,33.4601,Value,Value,2.4707,1.039506135,Male,22,110
effortratingclicks,27041,10,Medium,33.4601,ValueLiking,Liking,1.9568,1.029629743,Male,22,110
effortratingclicks,27041,11,Low,13.7438,Value,Value,2.6077,1.024691358,Male,22,110
effortratingclicks,27041,11,Low,13.7438,ValueLiking,Liking,1.8503,1.029629743,Male,22,110
effortratingclicks,27041,12,High,100.3216,Liking,Liking,3.2311,1.019753162,Male,22,110
effortratingclicks,27041,12,High,100.3216,LikingValue,Value,1.7001,1.064197493,Male,22,110
effortratingclicks,27041,13,Medium,63.6015,Value,Value,2.7487,1.009876581,Male,22,110
effortratingclicks,27041,13,Medium,63.6015,ValueLiking,Liking,2.5234,1.029629743,Male,22,110
effortratingclicks,27041,14,High,120.0343,Liking,Liking,4.3293,1.088888851,Male,22,110
effortratingclicks,27041,14,High,120.0343,LikingValue,Value,3.2057,1.014814777,Male,22,110
effortratingclicks,27041,15,Low,17.6671,Liking,Liking,5.2513,4.027160645,Male,22,110
effortratingclicks,27041,15,Low,17.6671,LikingValue,Value,1.2043,1.004938385,Male,22,110
effortratingclicks,27041,16,High,135.2866,Value,Value,5.3064,1.034567939,Male,22,110
effortratingclicks,27041,16,High,135.2866,ValueLiking,Liking,0.574,2.965432249,Male,22,110
effortratingclicks,27041,17,Low,21.1462,Value,Value,5.32,1.04444452,Male,22,110
effortratingclicks,27041,17,Low,21.1462,ValueLiking,Liking,1.2721,1.083950655,Male,22,110
effortratingclicks,27041,18,Medium,50.5484,Liking,Liking,3.673,1.039506135,Male,22,110
effortratingclicks,27041,18,Medium,50.5484,LikingValue,Value,3.5112,1.014814777,Male,22,110
effortratingclicks,43347,1,Low,12.2362,Value,Value,6.9974,1.104249494,Female,21,244
effortratingclicks,43347,1,Low,12.2362,ValueLiking,Liking,5.5871,1.075678711,Female,21,244
effortratingclicks,43347,2,Medium,33.8835,Value,Value,3.6018,1.970111039,Female,21,244
effortratingclicks,43347,2,Medium,33.8835,ValueLiking,Liking,4.7303,2.927107567,Female,21,244
effortratingclicks,43347,3,High,74.1484,Liking,Liking,3.4222,4.093578559,Female,21,244
effortratingclicks,43347,3,High,74.1484,LikingValue,Value,2.7771,4.023681641,Female,21,244
effortratingclicks,43347,4,Low,17.1172,Value,Value,7.2601,2.985522642,Female,21,244
effortratingclicks,43347,4,Low,17.1172,ValueLiking,Liking,3.9008,4.99812066,Female,21,244
effortratingclicks,43347,5,High,64.0338,Liking,Liking,5.1018,1.024172092,Female,21,244
effortratingclicks,43347,5,High,64.0338,LikingValue,Value,5.501,1.955971137,Female,21,244
effortratingclicks,43347,6,Medium,33.134,Liking,Liking,7.2501,2.029130859,Female,21,244
effortratingclicks,43347,6,Medium,33.134,LikingValue,Value,3.9721,1.109496347,Female,21,244
effortratingclicks,43347,7,High,63.8843,Liking,Liking,3.3421,4.0311943,Female,21,244
effortratingclicks,43347,7,High,63.8843,LikingValue,Value,1.6414,3.97301794,Female,21,244
effortratingclicks,43347,8,Medium,29.5168,Value,Value,5.5743,1.092928241,Female,21,244
effortratingclicks,43347,8,Medium,29.5168,ValueLiking,Liking,5.0332,1.027479384,Female,21,244
effortratingclicks,43347,9,Low,10.4376,Liking,Liking,2.9298,3.042853009,Female,21,244
effortratingclicks,43347,9,Low,10.4376,LikingValue,Value,4.3877,1.620171079,Female,21,244
effortratingclicks,43347,10,Medium,52.0344,Liking,Liking,2.8879,4.907628038,Female,21,244
effortratingclicks,43347,10,Medium,52.0344,LikingValue,Value,0.7631,3.015730252,Female,21,244
effortratingclicks,43347,11,Low,11.5998,Value,Value,3.0057,1,Female,21,244
effortratingclicks,43347,11,Low,11.5998,ValueLiking,Liking,1.3387,1.033897208,Female,21,244
effortratingclicks,43347,12,High,59.2361,Value,Value,3.5893,3.076518374,Female,21,244
effortratingclicks,43347,12,High,59.2361,ValueLiking,Liking,7.5181,2.31054796,Female,21,244
effortratingclicks,43347,13,Medium,37.2841,Liking,Liking,8.26,1,Female,21,244
effortratingclicks,43347,13,Medium,37.2841,LikingValue,Value,2.1436,2.034781539,Female,21,244
effortratingclicks,43347,14,High,70.6518,Value,Value,13.7895,1.045197483,Female,21,244
effortratingclicks,43347,14,High,70.6518,ValueLiking,Liking,2.2501,1.061745515,Female,21,244
effortratingclicks,43347,15,Low,14.6338,Value,Value,4.3543,1.95153682,Female,21,244
effortratingclicks,43347,15,Low,14.6338,ValueLiking,Liking,12.1407,1.965494792,Female,21,244
effortratingclicks,43347,16,High,61.7334,Liking,Liking,1.5418,1.47376917,Female,21,244
effortratingclicks,43347,16,High,61.7334,LikingValue,Value,4.2885,1.011649306,Female,21,244
effortratingclicks,43347,17,Low,10.267,Value,Value,3.8063,2.993063513,Female,21,244
effortratingclicks,43347,17,Low,10.267,ValueLiking,Liking,5.5508,1.971287254,Female,21,244
effortratingclicks,43347,18,Medium,25.8359,Liking,Liking,5.4012,1.054954427,Female,21,244
effortratingclicks,43347,18,Medium,25.8359,LikingValue,Value,2.1293,1.001214735,Female,21,244
effortratingclicks,42547,1,Low,21.9651,Value,Value,7.8226,3.511767578,Female,19,135
effortratingclicks,42547,1,Low,21.9651,ValueLiking,Liking,3.0278,2.628604601,Female,19,135
effortratingclicks,42547,2,Medium,45.5438,Value,Value,3.7856,2.202299986,Female,19,135
effortratingclicks,42547,2,Medium,45.5438,ValueLiking,Liking,4.4529,2.33921875,Female,19,135
effortratingclicks,42547,3,High,85.5871,Liking,Liking,3.9194,2.016761429,Female,19,135
effortratingclicks,42547,3,High,85.5871,LikingValue,Value,2.2044,3.027965495,Female,19,135
effortratingclicks,42547,4,Low,14.2684,Value,Value,4.8794,3.657058738,Female,19,135
effortratingclicks,42547,4,Low,14.2684,ValueLiking,Liking,1.8405,3.484859303,Female,19,135
effortratingclicks,42547,5,High,82.6571,Value,Value,1.8694,3.799500868,Female,19,135
effortratingclicks,42547,5,High,82.6571,ValueLiking,Liking,1.1946,3.726113281,Female,19,135
effortratingclicks,42547,6,Medium,31.1752,Liking,Liking,5.1246,1.301321615,Female,19,135
effortratingclicks,42547,6,Medium,31.1752,LikingValue,Value,1.2911,4.176552734,Female,19,135
effortratingclicks,42547,7,High,73.4645,Value,Value,4.625,3.101340784,Female,19,135
effortratingclicks,42547,7,High,73.4645,ValueLiking,Liking,0.6325,4.620504196,Female,19,135
effortratingclicks,42547,8,Medium,31.8267,Value,Value,3.9679,4.558453414,Female,19,135
effortratingclicks,42547,8,Medium,31.8267,ValueLiking,Liking,2.7895,4.710530237,Female,19,135
effortratingclicks,42547,9,Low,13.3526,Liking,Liking,3.3367,3.248541667,Female,19,135
effortratingclicks,42547,9,Low,13.3526,LikingValue,Value,1.1179,4.264316045,Female,19,135
effortratingclicks,42547,10,Medium,39.6229,Value,Value,3.4113,2.753049407,Female,19,135
effortratingclicks,42547,10,Medium,39.6229,ValueLiking,Liking,1.6297,3.841141493,Female,19,135
effortratingclicks,42547,11,Low,14.2534,Liking,Liking,11.3183,1.616486183,Female,19,135
effortratingclicks,42547,11,Low,14.2534,LikingValue,Value,1.4075,4.095909288,Female,19,135
effortratingclicks,42547,12,High,73.5817,Value,Value,1.7073,4.414863643,Female,19,135
effortratingclicks,42547,12,High,73.5817,ValueLiking,Liking,0.9077,1.73002568,Female,19,135
effortratingclicks,42547,13,Medium,42.5675,Value,Value,4.3879,2.628165509,Female,19,135
effortratingclicks,42547,13,Medium,42.5675,ValueLiking,Liking,3.2668,3.395509621,Female,19,135
effortratingclicks,42547,14,High,83.6761,Liking,Liking,2.8279,4.456385634,Female,19,135
effortratingclicks,42547,14,High,83.6761,LikingValue,Value,2.3056,3.775451389,Female,19,135
effortratingclicks,42547,15,Low,31.4932,Value,Value,3.6037,2.179356916,Female,19,135
effortratingclicks,42547,15,Low,31.4932,ValueLiking,Liking,0.9202,4.385689019,Female,19,135
effortratingclicks,42547,16,High,71.4073,Value,Value,6.455,2.179632161,Female,19,135
effortratingclicks,42547,16,High,71.4073,ValueLiking,Liking,1.5014,3.043171658,Female,19,135
effortratingclicks,42547,17,Low,13.1123,Value,Value,7.5169,2.898081236,Female,19,135
effortratingclicks,42547,17,Low,13.1123,ValueLiking,Liking,1.1556,3.213607133,Female,19,135
effortratingclicks,42547,18,Medium,32.1893,Liking,Liking,2.8223,1.236053422,Female,19,135
effortratingclicks,42547,18,Medium,32.1893,LikingValue,Value,1.0119,1.531216001,Female,19,135
effortratingclicks,40446,1,Low,15.6374,Value,Value,5.2463,1.979166667,Female,29,103
effortratingclicks,40446,1,Low,15.6374,ValueLiking,Liking,8.5226,2.479166667,Female,29,103
effortratingclicks,40446,2,Medium,45.7068,Value,Value,2.1419,1,Female,29,103
effortratingclicks,40446,2,Medium,45.7068,ValueLiking,Liking,1.2832,2.986111111,Female,29,103
effortratingclicks,40446,3,High,80.2033,Liking,Liking,2.6146,1.972222222,Female,29,103
effortratingclicks,40446,3,High,80.2033,LikingValue,Value,4.3335,1.541666667,Female,29,103
effortratingclicks,40446,4,Low,13.3375,Value,Value,5.001,2.888888889,Female,29,103
effortratingclicks,40446,4,Low,13.3375,ValueLiking,Liking,2.3832,2.888888889,Female,29,103
effortratingclicks,40446,5,High,80.8198,Liking,Liking,4.9526,1.368055556,Female,29,103
effortratingclicks,40446,5,High,80.8198,LikingValue,Value,3.6323,1.701388889,Female,29,103
effortratingclicks,40446,6,Medium,47.6695,Value,Value,4.4592,1.993055556,Female,29,103
effortratingclicks,40446,6,Medium,47.6695,ValueLiking,Liking,4.4369,3.006944444,Female,29,103
effortratingclicks,40446,7,High,85.8527,Value,Value,3.6342,1.236111111,Female,29,103
effortratingclicks,40446,7,High,85.8527,ValueLiking,Liking,1.7764,1.6875,Female,29,103
effortratingclicks,40446,8,Medium,32.5158,Liking,Liking,3.0584,2.548611111,Female,29,103
effortratingclicks,40446,8,Medium,32.5158,LikingValue,Value,4.6676,3.5,Female,29,103
effortratingclicks,40446,9,Low,12.9208,Liking,Liking,2.5095,2.534722222,Female,29,103
effortratingclicks,40446,9,Low,12.9208,LikingValue,Value,3.5387,4.326388889,Female,29,103
effortratingclicks,40446,10,Medium,37.9368,Liking,Liking,4.3917,2.513888889,Female,29,103
effortratingclicks,40446,10,Medium,37.9368,LikingValue,Value,2.4183,2.791666667,Female,29,103
effortratingclicks,40446,11,Low,11.5876,Liking,Liking,2.5588,2.715277778,Female,29,103
effortratingclicks,40446,11,Low,11.5876,LikingValue,Value,2.4722,4.048611111,Female,29,103
effortratingclicks,40446,12,High,73.2005,Liking,Liking,4.1702,2.819444444,Female,29,103
effortratingclicks,40446,12,High,73.2005,LikingValue,Value,3.8122,1.569444444,Female,29,103
effortratingclicks,40446,13,Medium,34.2528,Liking,Liking,4.2611,1.958333333,Female,29,103
effortratingclicks,40446,13,Medium,34.2528,LikingValue,Value,2.5188,1.986111111,Female,29,103
effortratingclicks,40446,14,High,89.8336,Liking,Liking,3.287,2.395833333,Female,29,103
effortratingclicks,40446,14,High,89.8336,LikingValue,Value,3.1013,1.458333333,Female,29,103
effortratingclicks,40446,15,Low,14.1544,Liking,Liking,2.2262,2.458333333,Female,29,103
effortratingclicks,40446,15,Low,14.1544,LikingValue,Value,3.8556,4.416666667,Female,29,103
effortratingclicks,40446,16,High,78.0668,Value,Value,5.1228,1.520833333,Female,29,103
effortratingclicks,40446,17,Low,17.6699,Value,Value,1.9933,2,Female,29,103
effortratingclicks,40446,17,Low,17.6699,ValueLiking,Liking,3.1538,2.541666667,Female,29,103
effortratingclicks,40446,18,Medium,33.3531,Liking,Liking,3.6294,1.590277778,Female,29,103
effortratingclicks,40446,18,Medium,33.3531,LikingValue,Value,1.9159,1.951388889,Female,29,103
effortratingclicks,26840,1,Low,16.1981,Value,Value,4.9944,2.023148148,Female,22,334
effortratingclicks,26840,1,Low,16.1981,ValueLiking,Liking,4.921,1.073634259,Female,22,334
effortratingclicks,26840,2,Medium,29.6504,Liking,Liking,3.324,1.990601852,Female,22,334
effortratingclicks,26840,2,Medium,29.6504,LikingValue,Value,5.0723,1.031944444,Female,22,334
effortratingclicks,26840,3,High,64.5009,Liking,Liking,5.3242,2.979791667,Female,22,334
effortratingclicks,26840,3,High,64.5009,LikingValue,Value,3.9712,1.984791667,Female,22,334
effortratingclicks,26840,4,Low,16.0004,Liking,Liking,3.3574,4.96625,Female,22,334
effortratingclicks,26840,4,Low,16.0004,LikingValue,Value,3.6909,1.858726852,Female,22,334
effortratingclicks,26840,5,High,60.4657,Value,Value,2.0918,1.005092593,Female,22,334
effortratingclicks,26840,5,High,60.4657,ValueLiking,Liking,2.144,1.061111111,Female,22,334
effortratingclicks,26840,6,Medium,55.2655,Liking,Liking,4.707,2.980740741,Female,22,334
effortratingclicks,26840,6,Medium,55.2655,LikingValue,Value,2.0887,3.005717593,Female,22,334
effortratingclicks,26840,7,High,57.6002,Liking,Liking,2.5906,1.009837963,Female,22,334
effortratingclicks,26840,7,High,57.6002,LikingValue,Value,5.6765,1.839166667,Female,22,334
effortratingclicks,26840,8,Medium,29.4325,Value,Value,3.546,3.54400463,Female,22,334
effortratingclicks,26840,8,Medium,29.4325,ValueLiking,Liking,2.1549,4.960046296,Female,22,334
effortratingclicks,26840,9,Low,18.5666,Liking,Liking,5.205,1.021273148,Female,22,334
effortratingclicks,26840,9,Low,18.5666,LikingValue,Value,2.0088,2.227523148,Female,22,334
effortratingclicks,26840,10,Medium,28.4838,Value,Value,3.8103,1.013912037,Female,22,334
effortratingclicks,26840,10,Medium,28.4838,ValueLiking,Liking,1.7716,1.022847222,Female,22,334
effortratingclicks,26840,11,Low,14.8829,Value,Value,5.1211,4.976712963,Female,22,334
effortratingclicks,26840,11,Low,14.8829,ValueLiking,Liking,4.6925,1.143935185,Female,22,334
effortratingclicks,26840,12,High,53.033,Value,Value,3.5716,4.977962963,Female,22,334
effortratingclicks,26840,12,High,53.033,ValueLiking,Liking,0.8925,3.524050926,Female,22,334
effortratingclicks,26840,13,Medium,42.3005,Liking,Liking,10.141,2.203981481,Female,22,334
effortratingclicks,26840,13,Medium,42.3005,LikingValue,Value,3.1574,3.916388889,Female,22,334
effortratingclicks,26840,14,High,58.2504,Value,Value,6.1441,4.069282407,Female,22,334
effortratingclicks,26840,14,High,58.2504,ValueLiking,Liking,2.1591,4.964791667,Female,22,334
effortratingclicks,26840,15,Low,10.0384,Value,Value,3.0904,4.867962963,Female,22,334
effortratingclicks,26840,15,Low,10.0384,ValueLiking,Liking,3.0248,4.947916667,Female,22,334
effortratingclicks,26840,16,High,54.4999,Value,Value,4.628,2.975902778,Female,22,334
effortratingclicks,26840,16,High,54.4999,ValueLiking,Liking,0.6084,4.967199074,Female,22,334
effortratingclicks,26840,17,Low,9.5002,Liking,Liking,1.5576,1.055833333,Female,22,334
effortratingclicks,26840,17,Low,9.5002,LikingValue,Value,2.8261,2.956550926,Female,22,334
effortratingclicks,26840,18,Medium,25.7834,Liking,Liking,1.9097,4.973125,Female,22,334
effortratingclicks,26840,18,Medium,25.7834,LikingValue,Value,1.2244,4.882083333,Female,22,334
effortratingclicks,30266,1,Low,17.1603,Liking,Liking,4.5674,1.99974537,Male,21,192
effortratingclicks,30266,1,Low,17.1603,LikingValue,Value,3.3306,2.962152778,Male,21,192
effortratingclicks,30266,2,Medium,31.6869,Value,Value,4.6337,3.50875,Male,21,192
effortratingclicks,30266,2,Medium,31.6869,ValueLiking,Liking,2.6071,4.957615741,Male,21,192
effortratingclicks,30266,3,High,63.6895,Value,Value,2.4649,1.992337963,Male,21,192
effortratingclicks,30266,3,High,63.6895,ValueLiking,Liking,1.1653,3.582013889,Male,21,192
effortratingclicks,30266,4,Low,10.7279,Liking,Liking,2.392,4.965023148,Male,21,192
effortratingclicks,30266,4,Low,10.7279,LikingValue,Value,0.6196,4.639583333,Male,21,192
effortratingclicks,30266,5,High,58.005,Liking,Liking,5.3135,1.700787037,Male,21,192
effortratingclicks,30266,5,High,58.005,LikingValue,Value,7.1098,3.251319444,Male,21,192
effortratingclicks,30266,6,Medium,25.8378,Value,Value,4.5326,3.058958333,Male,21,192
effortratingclicks,30266,6,Medium,25.8378,ValueLiking,Liking,2.1063,3.720787037,Male,21,192
effortratingclicks,30266,7,High,61.3463,Liking,Liking,3.9971,4.458217593,Male,21,192
effortratingclicks,30266,7,High,61.3463,LikingValue,Value,1.1539,4.099652778,Male,21,192
effortratingclicks,30266,8,Medium,26.5366,Liking,Liking,4.7327,4.026041667,Male,21,192
effortratingclicks,30266,8,Medium,26.5366,LikingValue,Value,1.7477,2.032013889,Male,21,192
effortratingclicks,30266,9,Low,10.8977,Value,Value,2.5582,1.385208333,Male,21,192
effortratingclicks,30266,9,Low,10.8977,ValueLiking,Liking,0.7662,4.071203704,Male,21,192
effortratingclicks,30266,10,Medium,34.695,Value,Value,2.7785,3.865949074,Male,21,192
effortratingclicks,30266,10,Medium,34.695,ValueLiking,Liking,0.6939,4.480694444,Male,21,192
effortratingclicks,30266,11,Low,11.3631,Value,Value,2.424,3.047222222,Male,21,192
effortratingclicks,30266,11,Low,11.3631,ValueLiking,Liking,0.8771,3.682152778,Male,21,192
effortratingclicks,30266,12,High,60.3078,Value,Value,2.8478,2.584837963,Male,21,192
effortratingclicks,30266,12,High,60.3078,ValueLiking,Liking,1.0704,3.495717593,Male,21,192
effortratingclicks,30266,13,Medium,24.4833,Value,Value,5.1389,3.970578704,Male,21,192
effortratingclicks,30266,13,Medium,24.4833,ValueLiking,Liking,0.78,3.991828704,Male,21,192
effortratingclicks,30266,14,High,62.1837,Value,Value,1.646,3.620740741,Male,21,192
effortratingclicks,30266,14,High,62.1837,ValueLiking,Liking,1.7066,4.646111111,Male,21,192
effortratingclicks,30266,15,Low,10.561,Liking,Liking,1.9477,3.056550926,Male,21,192
effortratingclicks,30266,15,Low,10.561,LikingValue,Value,0.8605,3.735439815,Male,21,192
effortratingclicks,30266,16,High,60.4805,Liking,Liking,3.429,3.674583333,Male,21,192
effortratingclicks,30266,16,High,60.4805,LikingValue,Value,0.5043,4.79400463,Male,21,192
effortratingclicks,30266,17,Low,9.1758,Value,Value,2.2625,2.719259259,Male,21,192
effortratingclicks,30266,17,Low,9.1758,ValueLiking,Liking,0.5511,4.73875,Male,21,192
effortratingclicks,30266,18,Medium,24.6825,Liking,Liking,2.1699,2.962291667,Male,21,192
effortratingclicks,30266,18,Medium,24.6825,LikingValue,Value,0.5268,2.998796296,Male,21,192
effortratingclicks,41189,1,Low,15.9723,Value,Value,8.3048,1.009876543,Male,21,218
effortratingclicks,41189,1,Low,15.9723,ValueLiking,Liking,6.0927,4.012345679,Male,21,218
effortratingclicks,41189,2,Medium,31.4691,Value,Value,4.2239,1.019753086,Male,21,218
effortratingclicks,41189,2,Medium,31.4691,ValueLiking,Liking,4.6099,1,Male,21,218
effortratingclicks,41189,3,High,102.8416,Value,Value,3.1841,2.990123457,Male,21,218
effortratingclicks,41189,3,High,102.8416,ValueLiking,Liking,4.1398,2.980246914,Male,21,218
effortratingclicks,41189,4,Low,12.0929,Value,Value,2.894,4.002469136,Male,21,218
effortratingclicks,41189,4,Low,12.0929,ValueLiking,Liking,1.6535,4.032098765,Male,21,218
effortratingclicks,41189,5,High,60.4531,Liking,Liking,3.2908,4.032098765,Male,21,218
effortratingclicks,41189,5,High,60.4531,LikingValue,Value,1.3746,3.997530864,Male,21,218
effortratingclicks,41189,6,Medium,39.9978,Value,Value,3.8178,1.972839506,Male,21,218
effortratingclicks,41189,6,Medium,39.9978,ValueLiking,Liking,4.4064,1.019753086,Male,21,218
effortratingclicks,41189,7,High,65.8881,Liking,Liking,2.6719,4.950617284,Male,21,218
effortratingclicks,41189,7,High,65.8881,LikingValue,Value,3.3648,4.04691358,Male,21,218
effortratingclicks,41189,8,Medium,28.3652,Liking,Liking,1.5042,4.916049383,Male,21,218
effortratingclicks,41189,8,Medium,28.3652,LikingValue,Value,0.52,3.039506173,Male,21,218
effortratingclicks,41189,9,Low,9.6487,Liking,Liking,0.9114,2.037037037,Male,21,218
effortratingclicks,41189,9,Low,9.6487,LikingValue,Value,1.5621,1.044444444,Male,21,218
effortratingclicks,41189,10,Medium,26.188,Value,Value,3.4779,4.980246914,Male,21,218
effortratingclicks,41189,10,Medium,26.188,ValueLiking,Liking,4.9905,3.977777778,Male,21,218
effortratingclicks,41189,11,Low,10.9654,Value,Value,5.0219,1.069135802,Male,21,218
effortratingclicks,41189,11,Low,10.9654,ValueLiking,Liking,4.9085,1.977777778,Male,21,218
effortratingclicks,41189,12,High,58.1993,Value,Value,2.2875,2.955555556,Male,21,218
effortratingclicks,41189,12,High,58.1993,ValueLiking,Liking,1.1905,1,Male,21,218
effortratingclicks,41189,13,Medium,33.7631,Liking,Liking,4.1301,1.943209877,Male,21,218
effortratingclicks,41189,13,Medium,33.7631,LikingValue,Value,1.3874,2.935802469,Male,21,218
effortratingclicks,41189,14,High,66.9111,Value,Value,4.7239,4.441975309,Male,21,218
effortratingclicks,41189,14,High,66.9111,ValueLiking,Liking,2.0712,4.881481481,Male,21,218
effortratingclicks,41189,15,Low,9.4063,Value,Value,5.0388,3.518518519,Male,21,218
effortratingclicks,41189,15,Low,9.4063,ValueLiking,Liking,1.1717,3.592592593,Male,21,218
effortratingclicks,41189,16,High,63.7422,Liking,Liking,15.1029,4.920987654,Male,21,218
effortratingclicks,41189,16,High,63.7422,LikingValue,Value,18.706,4.940740741,Male,21,218
effortratingclicks,41189,17,Low,10.4544,Liking,Liking,1.9072,3.572839506,Male,21,218
effortratingclicks,41189,17,Low,10.4544,LikingValue,Value,0.5924,3.992592593,Male,21,218
effortratingclicks,41189,18,Medium,26.0345,Liking,Liking,2.292,4.609876543,Male,21,218
effortratingclicks,41189,18,Medium,26.0345,LikingValue,Value,0.8159,4.125925926,Male,21,218
effortratingclicks,36814,1,Low,14.936,Liking,Liking,8.252,2.97037037,Female,19,173
effortratingclicks,36814,1,Low,14.936,LikingValue,Value,3.322,1.992592593,Female,19,173
effortratingclicks,36814,2,Medium,25.766,Value,Value,2.961,4.031111111,Female,19,173
effortratingclicks,36814,2,Medium,25.766,ValueLiking,Liking,4.006,4.967407407,Female,19,173
effortratingclicks,36814,3,High,67.972,Liking,Liking,21.815,2.994074074,Female,19,173
effortratingclicks,36814,3,High,67.972,LikingValue,Value,7.387,2.17037037,Female,19,173
effortratingclicks,36814,4,Low,10.873,Value,Value,3.459,2.472592593,Female,19,173
effortratingclicks,36814,4,Low,10.873,ValueLiking,Liking,4.031,3.551111111,Female,19,173
effortratingclicks,36814,5,High,69.76,Value,Value,2.364,1.678518519,Female,19,173
effortratingclicks,36814,5,High,69.76,ValueLiking,Liking,4.193,1.90962963,Female,19,173
effortratingclicks,36814,6,Medium,27.579,Value,Value,10.016,3.065185185,Female,19,173
effortratingclicks,36814,6,Medium,27.579,ValueLiking,Liking,6.581,3.983703704,Female,19,173
effortratingclicks,36814,7,High,59.217,Value,Value,1.733,4.752289924,Female,19,173
effortratingclicks,36814,7,High,59.217,ValueLiking,Liking,3.27,2.076065313,Female,19,173
effortratingclicks,36814,8,Medium,51.392,Value,Value,4.833,2.687773795,Female,19,173
effortratingclicks,36814,8,Medium,51.392,ValueLiking,Liking,3.801,4.841497411,Female,19,173
effortratingclicks,36814,9,Low,10.514,Value,Value,2.614,3.987654321,Female,19,173
effortratingclicks,36814,9,Low,10.514,ValueLiking,Liking,2.832,4.242532855,Female,19,173
effortratingclicks,36814,10,Medium,29.981,Value,Value,10.511,3.031859817,Female,19,173
effortratingclicks,36814,10,Medium,29.981,ValueLiking,Liking,2.707,4.994424532,Female,19,173
effortratingclicks,36814,11,Low,12.253,Liking,Liking,2.33,3.063719634,Female,19,173
effortratingclicks,36814,11,Low,12.253,LikingValue,Value,1.659,4.032258065,Female,19,173
effortratingclicks,36814,12,High,65.075,Value,Value,4.059,4.064117881,Female,19,173
effortratingclicks,36814,12,High,65.075,ValueLiking,Liking,40.709,4.070489845,Female,19,173
effortratingclicks,36814,13,Medium,36.801,Value,Value,4.889,4.255276782,Female,19,173
effortratingclicks,36814,13,Medium,36.801,ValueLiking,Liking,2.833,4.816009558,Female,19,173
effortratingclicks,36814,14,High,85.295,Value,Value,4.212,4.675826364,Female,19,173
effortratingclicks,36814,14,High,85.295,ValueLiking,Liking,5.282,3.528872959,Female,19,173
effortratingclicks,36814,15,Low,9.669,Liking,Liking,1.644,1.859418558,Female,19,173
effortratingclicks,36814,15,Low,9.669,LikingValue,Value,2.722,3.675428116,Female,19,173
effortratingclicks,36814,16,High,62.976,Value,Value,2.201,4.886101155,Female,19,173
effortratingclicks,36814,16,High,62.976,ValueLiking,Liking,0.648,4.682198327,Female,19,173
effortratingclicks,36814,17,Low,11.897,Liking,Liking,4.999,4.930704898,Female,19,173
effortratingclicks,36814,17,Low,11.897,LikingValue,Value,1.826,4.866985265,Female,19,173
effortratingclicks,36814,18,Medium,28.108,Liking,Liking,3.429,1.999601752,Female,19,173
effortratingclicks,36814,18,Medium,28.108,LikingValue,Value,1.063,4.261648746,Female,19,173
effortratingclicks,41815,1,Low,17.6171,Value,Value,3.3955,1.010462963,Female,19,372
effortratingclicks,41815,1,Low,17.6171,ValueLiking,Liking,2.2471,1.947407407,Female,19,372
effortratingclicks,41815,2,Medium,31.0579,Liking,Liking,1.9708,3.859212963,Female,19,372
effortratingclicks,41815,2,Medium,31.0579,LikingValue,Value,4.957,3.025231481,Female,19,372
effortratingclicks,41815,3,High,92.0686,Value,Value,3.4429,2.201990741,Female,19,372
effortratingclicks,41815,3,High,92.0686,ValueLiking,Liking,3.475,2.353680556,Female,19,372
effortratingclicks,41815,4,Low,12.0646,Value,Value,8.4403,3.550347222,Female,19,372
effortratingclicks,41815,4,Low,12.0646,ValueLiking,Liking,18.3076,5,Female,19,372
effortratingclicks,41815,5,High,76.5049,Value,Value,9.19,5,Female,19,372
effortratingclicks,41815,5,High,76.5049,ValueLiking,Liking,1.9591,4.552569444,Female,19,372
effortratingclicks,41815,6,Medium,34.0372,Liking,Liking,3.526,4.026898148,Female,19,372
effortratingclicks,41815,6,Medium,34.0372,LikingValue,Value,4.3586,3.449166667,Female,19,372
effortratingclicks,41815,7,High,82.7321,Liking,Liking,5.3028,1,Female,19,372
effortratingclicks,41815,7,High,82.7321,LikingValue,Value,2.9029,1,Female,19,372
effortratingclicks,41815,8,Medium,36.484,Liking,Liking,6.725,4.35537037,Female,19,372
effortratingclicks,41815,8,Medium,36.484,LikingValue,Value,3.3263,4.353032407,Female,19,372
effortratingclicks,41815,9,Low,18.2169,Liking,Liking,3.8256,2.483865741,Female,19,372
effortratingclicks,41815,9,Low,18.2169,LikingValue,Value,2.7088,3.477662037,Female,19,372
effortratingclicks,41815,10,Medium,42.8481,Value,Value,5.323,5,Female,19,372
effortratingclicks,41815,10,Medium,42.8481,ValueLiking,Liking,6.7281,5,Female,19,372
effortratingclicks,41815,11,Low,11.6178,Value,Value,5.289,4.351875,Female,19,372
effortratingclicks,41815,11,Low,11.6178,ValueLiking,Liking,2.6256,3.810648148,Female,19,372
effortratingclicks,41815,12,High,89.0992,Liking,Liking,4.5131,2.502106481,Female,19,372
effortratingclicks,41815,12,High,89.0992,LikingValue,Value,3.0469,2.518449074,Female,19,372
effortratingclicks,41815,13,Medium,37.2658,Value,Value,5.1596,5,Female,19,372
effortratingclicks,41815,13,Medium,37.2658,ValueLiking,Liking,3.9745,3.373055556,Female,19,372
effortratingclicks,41815,14,High,80.2822,Value,Value,15.6738,5,Female,19,372
effortratingclicks,41815,14,High,80.2822,ValueLiking,Liking,2.6259,5,Female,19,372
effortratingclicks,41815,15,Low,12.9838,Liking,Liking,4.6255,3.484050926,Female,19,372
effortratingclicks,41815,15,Low,12.9838,LikingValue,Value,3.9934,1.49724537,Female,19,372
effortratingclicks,41815,16,High,86.1664,Value,Value,4.4584,2.052939815,Female,19,372
effortratingclicks,41815,16,High,86.1664,ValueLiking,Liking,7.9231,2.349722222,Female,19,372
effortratingclicks,41815,17,Low,13.9672,Value,Value,4.2458,3.589027778,Female,19,372
effortratingclicks,41815,17,Low,13.9672,ValueLiking,Liking,1.2246,1.949953704,Female,19,372
effortratingclicks,41815,18,Medium,30.4495,Value,Value,14.1457,4.512384259,Female,19,372
effortratingclicks,41815,18,Medium,30.4495,ValueLiking,Liking,3.6275,2.468194444,Female,19,372
effortratingclicks,42042,1,Low,17.1057,Value,Value,5.8018,3.018263889,Female,19,256
effortratingclicks,42042,1,Low,17.1057,ValueLiking,Liking,5.3828,1.98849537,Female,19,256
effortratingclicks,42042,2,Medium,31.5353,Liking,Liking,8.9442,2.979444444,Female,19,256
effortratingclicks,42042,2,Medium,31.5353,LikingValue,Value,5.7658,2.009560185,Female,19,256
effortratingclicks,42042,3,High,74.1541,Liking,Liking,9.718,3.999606481,Female,19,256
effortratingclicks,42042,3,High,74.1541,LikingValue,Value,8.7342,3.975763889,Female,19,256
effortratingclicks,42042,4,Low,12.0674,Value,Value,5.3143,2.997175926,Female,19,256
effortratingclicks,42042,4,Low,12.0674,ValueLiking,Liking,1.7209,2.999328704,Female,19,256
effortratingclicks,42042,5,High,60.1862,Value,Value,4.009,4.975833333,Female,19,256
effortratingclicks,42042,5,High,60.1862,ValueLiking,Liking,2.0045,4.898425926,Female,19,256
effortratingclicks,42042,6,Medium,27.6168,Value,Value,8.2857,4.05849537,Female,19,256
effortratingclicks,42042,6,Medium,27.6168,ValueLiking,Liking,10.3179,4.995740741,Female,19,256
effortratingclicks,42042,7,High,71.6859,Liking,Liking,5.5016,2.930625,Female,19,256
effortratingclicks,42042,7,High,71.6859,LikingValue,Value,2.6376,2.967453704,Female,19,256
effortratingclicks,42042,8,Medium,39.5678,Value,Value,3.7697,2.03,Female,19,256
effortratingclicks,42042,8,Medium,39.5678,ValueLiking,Liking,2.5697,4.009675926,Female,19,256
effortratingclicks,42042,9,Low,10.5333,Liking,Liking,3.546,4.955185185,Female,19,256
effortratingclicks,42042,9,Low,10.5333,LikingValue,Value,1.9407,3.01900463,Female,19,256
effortratingclicks,42042,10,Medium,32.5178,Value,Value,4.2135,1.035625,Female,19,256
effortratingclicks,42042,10,Medium,32.5178,ValueLiking,Liking,2.6718,2.987962963,Female,19,256
effortratingclicks,42042,11,Low,11.8853,Liking,Liking,3.3581,4.005277778,Female,19,256
effortratingclicks,42042,11,Low,11.8853,LikingValue,Value,1.6145,3.972939815,Female,19,256
effortratingclicks,42042,12,High,65.719,Liking,Liking,3.6407,3.975856481,Female,19,256
effortratingclicks,42042,12,High,65.719,LikingValue,Value,4.8338,2.005486111,Female,19,256
effortratingclicks,42042,13,Medium,31.452,Liking,Liking,3.7161,1.906388889,Female,19,256
effortratingclicks,42042,13,Medium,31.452,LikingValue,Value,0.7844,2.980787037,Female,19,256
effortratingclicks,42042,14,High,65.3853,Value,Value,6.6516,1.029837963,Female,19,256
effortratingclicks,42042,14,High,65.3853,ValueLiking,Liking,0.8755,1.02775463,Female,19,256
effortratingclicks,42042,15,Low,12.9666,Value,Value,23.2145,2.020462963,Female,19,256
effortratingclicks,42042,15,Low,12.9666,ValueLiking,Liking,2.3104,4.97775463,Female,19,256
effortratingclicks,42042,16,High,118.0028,Liking,Liking,4.3355,2.94375,Female,19,256
effortratingclicks,42042,16,High,118.0028,LikingValue,Value,7.1376,2.041967593,Female,19,256
effortratingclicks,42042,17,Low,48.5349,Value,Value,6.7023,2.986782407,Female,19,256
effortratingclicks,42042,17,Low,48.5349,ValueLiking,Liking,3.0014,4.081898148,Female,19,256
effortratingclicks,42042,18,Medium,37.7191,Liking,Liking,4.6502,4.972060185,Female,19,256
effortratingclicks,42042,18,Medium,37.7191,LikingValue,Value,2.4177,3.959953704,Female,19,256
effortratingclicks,44285,1,Low,16.0084,Value,Value,8.4209,1.96575991,Female,20,297
effortratingclicks,44285,1,Low,16.0084,ValueLiking,Liking,5.4702,3.123466435,Female,20,297
effortratingclicks,44285,2,Medium,39.0481,Value,Value,3.3562,1.577440683,Female,20,297
effortratingclicks,44285,2,Medium,39.0481,ValueLiking,Liking,3.1506,2.112902561,Female,20,297
effortratingclicks,44285,3,High,75.2807,Value,Value,3.0582,2.568725405,Female,20,297
effortratingclicks,44285,3,High,75.2807,ValueLiking,Liking,3.2339,3.152071036,Female,20,297
effortratingclicks,44285,4,Low,15.8085,Value,Value,4.781,3.660803675,Female,20,297
effortratingclicks,44285,4,Low,15.8085,ValueLiking,Liking,1.4404,4.441402633,Female,20,297
effortratingclicks,44285,5,High,67.8232,Value,Value,3.1697,2.543968461,Female,20,297
effortratingclicks,44285,5,High,67.8232,ValueLiking,Liking,1.9535,2.205810909,Female,20,297
effortratingclicks,44285,6,Medium,26.5898,Liking,Liking,2.3225,1.331347295,Female,20,297
effortratingclicks,44285,6,Medium,26.5898,LikingValue,Value,3.2002,3.286878979,Female,20,297
effortratingclicks,44285,7,High,74.0636,Value,Value,2.6622,4.781065538,Female,20,297
effortratingclicks,44285,7,High,74.0636,ValueLiking,Liking,0.5713,3.639364873,Female,20,297
effortratingclicks,44285,8,Medium,28.223,Liking,Liking,2.5958,4.62478588,Female,20,297
effortratingclicks,44285,8,Medium,28.223,LikingValue,Value,1.6885,2.7364152920000002,Female,20,297
effortratingclicks,44285,9,Low,10.9541,Liking,Liking,1.7365,3.833036024,Female,20,297
effortratingclicks,44285,9,Low,10.9541,LikingValue,Value,0.6051,4.218494647,Female,20,297
effortratingclicks,44285,10,Medium,28.7189,Liking,Liking,2.9219,1.251839012,Female,20,297
effortratingclicks,44285,10,Medium,28.7189,LikingValue,Value,0.5586,2.592407046,Female,20,297
effortratingclicks,44285,11,Low,10.2704,Value,Value,2.469,3.695303458,Female,20,297
effortratingclicks,44285,11,Low,10.2704,ValueLiking,Liking,0.8365,4.008332248,Female,20,297
effortratingclicks,44285,12,High,140.1244,Liking,Liking,1.7251,3.409640842,Female,20,297
effortratingclicks,44285,12,High,140.1244,LikingValue,Value,0.6052,2.654376447,Female,20,297
effortratingclicks,44285,13,Medium,34.6058,Liking,Liking,4.4412,4.575968605,Female,20,297
effortratingclicks,44285,13,Medium,34.6058,LikingValue,Value,2.6054,3.10094184,Female,20,297
effortratingclicks,44285,14,High,62.1303,Value,Value,7.4838,3.689238281,Female,20,297
effortratingclicks,44285,14,High,62.1303,ValueLiking,Liking,2.3892,2.464052011,Female,20,297
effortratingclicks,44285,15,Low,15.5816,Liking,Liking,2.3087,3.997549913,Female,20,297
effortratingclicks,44285,15,Low,15.5816,LikingValue,Value,0.8601,3.238849103,Female,20,297
effortratingclicks,44285,16,High,76.6204,Value,Value,2.6911,3.88856156,Female,20,297
effortratingclicks,44285,16,High,76.6204,ValueLiking,Liking,0.7258,3.407179543,Female,20,297
effortratingclicks,44285,17,Low,14.4825,Value,Value,11.1512,3.138380715,Female,20,297
effortratingclicks,44285,17,Low,14.4825,ValueLiking,Liking,9.0643,2.812308666,Female,20,297
effortratingclicks,44285,18,Medium,35.852,Liking,Liking,1.6205,4.366019604,Female,20,297
effortratingclicks,44285,18,Medium,35.852,LikingValue,Value,0.8705,4.517556785,Female,20,297
effortratingclicks,40068,1,Low,14.4475,Value,Value,5.2443,2.003280948,Female,19,51
effortratingclicks,40068,1,Low,14.4475,ValueLiking,Liking,3.3619,1.1022223310000001,Female,19,51
effortratingclicks,40068,2,Medium,31.5885,Liking,Liking,4.0187,1.008413511,Female,19,51
effortratingclicks,40068,2,Medium,31.5885,LikingValue,Value,3.2207,4.982945632,Female,19,51
effortratingclicks,40068,3,High,60.06,Liking,Liking,4.1674,1.01088224,Female,19,51
effortratingclicks,40068,3,High,60.06,LikingValue,Value,3.1022,4.985414361,Female,19,51
effortratingclicks,40068,4,Low,18.6625,Value,Value,3.4044,3.993015823,Female,19,51
effortratingclicks,40068,4,Low,18.6625,ValueLiking,Liking,2.3554,1.023225376,Female,19,51
effortratingclicks,40068,5,High,69.2248,Liking,Liking,3.6724,4.970602665,Female,19,51
effortratingclicks,40068,5,High,69.2248,LikingValue,Value,2.5385,3.936236751,Female,19,51
effortratingclicks,40068,6,Medium,46.1866,Value,Value,3.3896,3.57087605,Female,19,51
effortratingclicks,40068,6,Medium,46.1866,ValueLiking,Liking,1.3237,4.933573087,Female,19,51
effortratingclicks,40068,7,High,62.6949,Value,Value,2.8557,2.998148216,Female,19,51
effortratingclicks,40068,7,High,62.6949,ValueLiking,Liking,4.1545,4.639803153,Female,19,51
effortratingclicks,40068,8,Medium,45.5967,Liking,Liking,2.0387,4.940978596,Female,19,51
effortratingclicks,40068,8,Medium,45.5967,LikingValue,Value,0.7402,4.220132109,Female,19,51
effortratingclicks,40068,9,Low,10.0421,Value,Value,1.9761,2.914214143,Female,19,51
effortratingclicks,40068,9,Low,10.0421,ValueLiking,Liking,0.9239,2.037842137,Female,19,51
effortratingclicks,40068,10,Medium,34.3488,Liking,Liking,4.9096,2.445169875,Female,19,51
effortratingclicks,40068,10,Medium,34.3488,LikingValue,Value,1.5572,2.911745414,Female,19,51
effortratingclicks,40068,11,Low,11.4745,Value,Value,3.2918,2.074872055,Female,19,51
effortratingclicks,40068,11,Low,11.4745,ValueLiking,Liking,0.6777,1.976125608,Female,19,51
effortratingclicks,40068,12,High,61.5246,Value,Value,4.5237,3.042583982,Female,19,51
effortratingclicks,40068,12,High,61.5246,ValueLiking,Liking,0.7576,1.341681922,Female,19,51
effortratingclicks,40068,13,Medium,26.2483,Liking,Liking,1.3738,1.223186322,Female,19,51
effortratingclicks,40068,13,Medium,26.2483,LikingValue,Value,1.6292,2.013155525,Female,19,51
effortratingclicks,40068,14,High,56.9242,Value,Value,2.8898,3.931299293,Female,19,51
effortratingclicks,40068,14,High,56.9242,ValueLiking,Liking,0.8893,3.000616945,Female,19,51
effortratingclicks,40068,15,Low,10.6303,Value,Value,1.4439,2.185961469,Female,19,51
effortratingclicks,40068,15,Low,10.6303,ValueLiking,Liking,0.8255,2.294582154,Female,19,51
effortratingclicks,40068,16,High,59.8182,Value,Value,4.9008,3.960923024,Female,19,51
effortratingclicks,40068,16,High,59.8182,ValueLiking,Liking,0.7912,4.034982859,Female,19,51
effortratingclicks,40068,17,Low,15.2058,Value,Value,4.2179,3.558532744,Female,19,51
effortratingclicks,40068,17,Low,15.2058,ValueLiking,Liking,1.2538,2.926557449,Female,19,51
effortratingclicks,40068,18,Medium,29.2888,Liking,Liking,1.6077,2.590820478,Female,19,51
effortratingclicks,40068,18,Medium,29.2888,LikingValue,Value,1.16,2.425420721,Female,19,51
effortratingclicks,42180,1,Low,16.9646,Value,Value,9.0546,1.986111111,Female,18,151
effortratingclicks,42180,1,Low,16.9646,ValueLiking,Liking,5.4422,1.965277778,Female,18,151
effortratingclicks,42180,2,Medium,36.8188,Liking,Liking,4.3238,2,Female,18,151
effortratingclicks,42180,2,Medium,36.8188,LikingValue,Value,2.3841,1.972222222,Female,18,151
effortratingclicks,42180,3,High,66.3068,Liking,Liking,4.1156,2.020833333,Female,18,151
effortratingclicks,42180,3,High,66.3068,LikingValue,Value,0.9556,2.013888889,Female,18,151
effortratingclicks,42180,4,Low,10.8119,Liking,Liking,4.6421,3.006944444,Female,18,151
effortratingclicks,42180,4,Low,10.8119,LikingValue,Value,0.7114,2.965277778,Female,18,151
effortratingclicks,42180,5,High,66.7225,Value,Value,5.4208,3,Female,18,151
effortratingclicks,42180,5,High,66.7225,ValueLiking,Liking,1.9326,3.027777778,Female,18,151
effortratingclicks,42180,6,Medium,24.5488,Value,Value,4.1872,1.013888889,Female,18,151
effortratingclicks,42180,6,Medium,24.5488,ValueLiking,Liking,5.4714,2.013888889,Female,18,151
effortratingclicks,42180,7,High,51.6888,Liking,Liking,2.6816,1.034722222,Female,18,151
effortratingclicks,42180,7,High,51.6888,LikingValue,Value,0.821,2.076388889,Female,18,151
effortratingclicks,42180,8,Medium,27.329,Value,Value,3.0748,2.694444444,Female,18,151
effortratingclicks,42180,8,Medium,27.329,ValueLiking,Liking,1.4707,3.930555556,Female,18,151
effortratingclicks,42180,9,Low,10.6127,Liking,Liking,2.1345,1.493055556,Female,18,151
effortratingclicks,42180,9,Low,10.6127,LikingValue,Value,0.6094,2.916666667,Female,18,151
effortratingclicks,42180,10,Medium,31.8261,Liking,Liking,1.8359,1.493055556,Female,18,151
effortratingclicks,42180,10,Medium,31.8261,LikingValue,Value,1.2568,2.840277778,Female,18,151
effortratingclicks,42180,11,Low,9.9961,Value,Value,2.1517,2.541666667,Female,18,151
effortratingclicks,42180,11,Low,9.9961,ValueLiking,Liking,5.1969,3.3125,Female,18,151
effortratingclicks,42180,12,High,58.0481,Liking,Liking,2.1341,2.006944444,Female,18,151
effortratingclicks,42180,12,High,58.0481,LikingValue,Value,3.0996,2.472222222,Female,18,151
effortratingclicks,42180,13,Medium,26.9962,Value,Value,4.1644,3.520833333,Female,18,151
effortratingclicks,42180,13,Medium,26.9962,ValueLiking,Liking,2.3831,1.993055556,Female,18,151
effortratingclicks,42180,14,High,54.6352,Value,Value,3.5715,3,Female,18,151
effortratingclicks,42180,14,High,54.6352,ValueLiking,Liking,3.1584,3.604166667,Female,18,151
effortratingclicks,42180,15,Low,10.0953,Value,Value,7.395,3.416666667,Female,18,151
effortratingclicks,42180,15,Low,10.0953,ValueLiking,Liking,2.1916,4.409722222,Female,18,151
effortratingclicks,42180,16,High,59.2968,Value,Value,3.6246,3.458333333,Female,18,151
effortratingclicks,42180,16,High,59.2968,ValueLiking,Liking,1.1682,4.493055556,Female,18,151
effortratingclicks,42180,17,Low,9.3306,Value,Value,4.1416,2.715277778,Female,18,151
effortratingclicks,42180,17,Low,9.3306,ValueLiking,Liking,0.4514,4.263888889,Female,18,151
effortratingclicks,42180,18,Medium,25.0146,Value,Value,4.3771,3.902777778,Female,18,151
effortratingclicks,42180,18,Medium,25.0146,ValueLiking,Liking,2.6398,4.736111111,Female,18,151
effortratingclicks,38291,1,Low,14.87,Value,Value,4.3276,1.015324074,Male,20,140
effortratingclicks,38291,1,Low,14.87,ValueLiking,Liking,3.0517,2.936111111,Male,20,140
effortratingclicks,38291,2,Medium,32.7523,Liking,Liking,2.5601,1.985532407,Male,20,140
effortratingclicks,38291,2,Medium,32.7523,LikingValue,Value,5.8846,4.9475,Male,20,140
effortratingclicks,38291,3,High,80.0061,Value,Value,2.2019,1.03025463,Male,20,140
effortratingclicks,38291,3,High,80.0061,ValueLiking,Liking,2.2037,1.041574074,Male,20,140
effortratingclicks,38291,4,Low,10.5521,Liking,Liking,2.934,1.937384259,Male,20,140
effortratingclicks,38291,4,Low,10.5521,LikingValue,Value,2.5864,2.190601852,Male,20,140
effortratingclicks,38291,5,High,67.1882,Liking,Liking,1.6662,1.345787037,Male,20,140
effortratingclicks,38291,5,High,67.1882,LikingValue,Value,1.0172,1.933657407,Male,20,140
effortratingclicks,38291,6,Medium,32.3177,Liking,Liking,2.8673,2.323518519,Male,20,140
effortratingclicks,38291,6,Medium,32.3177,LikingValue,Value,1.4041,2.310648148,Male,20,140
effortratingclicks,38291,7,High,67.237,Value,Value,1.7847,1.225717593,Male,20,140
effortratingclicks,38291,7,High,67.237,ValueLiking,Liking,0.6351,1.273032407,Male,20,140
effortratingclicks,38291,8,Medium,29.5545,Liking,Liking,0.9042,1.317939815,Male,20,140
effortratingclicks,38291,8,Medium,29.5545,LikingValue,Value,0.9394,1.376967593,Male,20,140
effortratingclicks,38291,9,Low,12.5051,Liking,Liking,1.138,4.315787037,Male,20,140
effortratingclicks,38291,9,Low,12.5051,LikingValue,Value,1.3207,3.504467593,Male,20,140
effortratingclicks,38291,10,Medium,28.6377,Liking,Liking,2.9942,2.300833333,Male,20,140
effortratingclicks,38291,10,Medium,28.6377,LikingValue,Value,0.9713,2.630763889,Male,20,140
effortratingclicks,38291,11,Low,13.8686,Liking,Liking,7.461,2.588981481,Male,20,140
effortratingclicks,38291,11,Low,13.8686,LikingValue,Value,0.8857,3.138935185,Male,20,140
effortratingclicks,38291,12,High,69.1871,Liking,Liking,2.0669,2.238518519,Male,20,140
effortratingclicks,38291,12,High,69.1871,LikingValue,Value,1.0229,3.078125,Male,20,140
effortratingclicks,38291,13,Medium,26.8044,Value,Value,1.0704,2.192847222,Male,20,140
effortratingclicks,38291,13,Medium,26.8044,ValueLiking,Liking,1.0043,2.097337963,Male,20,140
effortratingclicks,38291,14,High,71.762,Liking,Liking,7.6615,2.533055556,Male,20,140
effortratingclicks,38291,14,High,71.762,LikingValue,Value,1.1706,2.935578704,Male,20,140
effortratingclicks,38291,15,Low,33.0553,Value,Value,1.7515,1.87375,Male,20,140
effortratingclicks,38291,15,Low,33.0553,ValueLiking,Liking,1.4519,1.933773148,Male,20,140
effortratingclicks,38291,16,High,65.4066,Value,Value,1.9003,1.307407407,Male,20,140
effortratingclicks,38291,16,High,65.4066,ValueLiking,Liking,2.1354,1.46212963,Male,20,140
effortratingclicks,38291,17,Low,10.654,Liking,Liking,1.4348,1.479259259,Male,20,140
effortratingclicks,38291,17,Low,10.654,LikingValue,Value,1.0041,1.702407407,Male,20,140
effortratingclicks,38291,18,Medium,35.4878,Liking,Liking,1.5011,1.671180556,Male,20,140
effortratingclicks,38291,18,Medium,35.4878,LikingValue,Value,1.9672,2.164537037,Male,20,140
effortratingclicks,42583,1,Low,26.6047,Value,Value,5.3297,2.003819444,Female,18,276
effortratingclicks,42583,1,Low,26.6047,ValueLiking,Liking,2.1348,3.07474537,Female,18,276
effortratingclicks,42583,2,Medium,38.253,Value,Value,4.5265,2.943310185,Female,18,276
effortratingclicks,42583,2,Medium,38.253,ValueLiking,Liking,2.0509,3.35212963,Female,18,276
effortratingclicks,42583,3,High,86.475,Liking,Liking,3.871,4.279421296,Female,18,276
effortratingclicks,42583,3,High,86.475,LikingValue,Value,3.4219,4.037268519,Female,18,276
effortratingclicks,42583,4,Low,21.0372,Liking,Liking,2.6824,4.160231481,Female,18,276
effortratingclicks,42583,4,Low,21.0372,LikingValue,Value,2.1447,4.424791667,Female,18,276
effortratingclicks,42583,5,High,67.2723,Liking,Liking,1.8578,2.405092593,Female,18,276
effortratingclicks,42583,5,High,67.2723,LikingValue,Value,0.8647,1.981597222,Female,18,276
effortratingclicks,42583,6,Medium,38.1037,Value,Value,3.6241,4.112175926,Female,18,276
effortratingclicks,42583,6,Medium,38.1037,ValueLiking,Liking,2.743,3.841736111,Female,18,276
effortratingclicks,42583,7,High,65.9383,Liking,Liking,10.942,3.186319444,Female,18,276
effortratingclicks,42583,7,High,65.9383,LikingValue,Value,1.1892,3.918472222,Female,18,276
effortratingclicks,42583,8,Medium,33.0869,Liking,Liking,6.3516,3.127476852,Female,18,276
effortratingclicks,42583,8,Medium,33.0869,LikingValue,Value,2.0865,3.196851852,Female,18,276
effortratingclicks,42583,9,Low,10.3184,Value,Value,1.5194,4.432523148,Female,18,276
effortratingclicks,42583,9,Low,10.3184,ValueLiking,Liking,1.3913,4.375625,Female,18,276
effortratingclicks,42583,10,Medium,41.9035,Value,Value,4.4343,4.256412037,Female,18,276
effortratingclicks,42583,10,Medium,41.9035,ValueLiking,Liking,1.1083,4.217569444,Female,18,276
effortratingclicks,42583,11,Low,12.0857,Value,Value,2.3392,3.825069444,Female,18,276
effortratingclicks,42583,11,Low,12.0857,ValueLiking,Liking,1.0813,4.765671296,Female,18,276
effortratingclicks,42583,12,High,55.2389,Liking,Liking,3.0244,2.282060185,Female,18,276
effortratingclicks,42583,12,High,55.2389,LikingValue,Value,1.3542,2.423796296,Female,18,276
effortratingclicks,42583,13,Medium,29.5678,Value,Value,5.5174,4.07662037,Female,18,276
effortratingclicks,42583,13,Medium,29.5678,ValueLiking,Liking,0.6335,1.679050926,Female,18,276
effortratingclicks,42583,14,High,51.5041,Liking,Liking,2.3724,4.375601852,Female,18,276
effortratingclicks,42583,14,High,51.5041,LikingValue,Value,2.0019,2.729421296,Female,18,276
effortratingclicks,42583,15,Low,11.3189,Liking,Liking,5.0473,3.479699074,Female,18,276
effortratingclicks,42583,15,Low,11.3189,LikingValue,Value,1.7719,2.769513889,Female,18,276
effortratingclicks,42583,16,High,59.4362,Value,Value,4.2175,3.67599537,Female,18,276
effortratingclicks,42583,16,High,59.4362,ValueLiking,Liking,1.0018,2.397777778,Female,18,276
effortratingclicks,42583,17,Low,10.8818,Liking,Liking,4.1697,2.417407407,Female,18,276
effortratingclicks,42583,17,Low,10.8818,LikingValue,Value,1.3519,3.964074074,Female,18,276
effortratingclicks,42583,18,Medium,24.8349,Liking,Liking,2.7372,1.771087963,Female,18,276
effortratingclicks,42583,18,Medium,24.8349,LikingValue,Value,0.6713,2.254930556,Female,18,276
effortratingclicks,32753,1,Low,10.5531,Value,Value,5.4618,2.991990741,Female,21,166
effortratingclicks,32753,1,Low,10.5531,ValueLiking,Liking,4.7475,1.984050926,Female,21,166
effortratingclicks,32753,2,Medium,36.1004,Liking,Liking,4.8875,3.004467593,Female,21,166
effortratingclicks,32753,2,Medium,36.1004,LikingValue,Value,4.8821,1.962569444,Female,21,166
effortratingclicks,32753,3,High,61.8533,Value,Value,3.8365,4.995208333,Female,21,166
effortratingclicks,32753,3,High,61.8533,ValueLiking,Liking,3.4011,3.984861111,Female,21,166
effortratingclicks,32753,4,Low,9.8175,Value,Value,3.0361,1.988287037,Female,21,166
effortratingclicks,32753,4,Low,9.8175,ValueLiking,Liking,2.1669,2.995717593,Female,21,166
effortratingclicks,32753,5,High,64.6857,Liking,Liking,4.6169,3.989768519,Female,21,166
effortratingclicks,32753,5,High,64.6857,LikingValue,Value,1.9845,4.004328704,Female,21,166
effortratingclicks,32753,6,Medium,39.0529,Value,Value,2.3364,2.990185185,Female,21,166
effortratingclicks,32753,6,Medium,39.0529,ValueLiking,Liking,1.5527,1.974490741,Female,21,166
effortratingclicks,32753,7,High,66.1201,Value,Value,1.9019,4.018287037,Female,21,166
effortratingclicks,32753,7,High,66.1201,ValueLiking,Liking,2.1206,4.028333333,Female,21,166
effortratingclicks,32753,8,Medium,32.9685,Value,Value,4.8663,4.006157407,Female,21,166
effortratingclicks,32753,8,Medium,32.9685,ValueLiking,Liking,1.9519,2.004189815,Female,21,166
effortratingclicks,32753,9,Low,12.0194,Value,Value,4.9993,1.000162037,Female,21,166
effortratingclicks,32753,9,Low,12.0194,ValueLiking,Liking,8.6835,1.099166667,Female,21,166
effortratingclicks,32753,10,Medium,29.5696,Liking,Liking,2.8361,1.988773148,Female,21,166
effortratingclicks,32753,10,Medium,29.5696,LikingValue,Value,2.2201,2.008564815,Female,21,166
effortratingclicks,32753,11,Low,11.7173,Value,Value,2.5365,1.009444444,Female,21,166
effortratingclicks,32753,11,Low,11.7173,ValueLiking,Liking,1.869,2.028032407,Female,21,166
effortratingclicks,32753,12,High,58.5697,Value,Value,2.3014,4.095555556,Female,21,166
effortratingclicks,32753,12,High,58.5697,ValueLiking,Liking,1.371,1.241388889,Female,21,166
effortratingclicks,32753,13,Medium,28.653,Value,Value,1.4369,3.445810185,Female,21,166
effortratingclicks,32753,13,Medium,28.653,ValueLiking,Liking,3.5573,3.164675926,Female,21,166
effortratingclicks,32753,14,High,62.0384,ValueLiking,Liking,3.4024,3.470138889,Female,21,166
effortratingclicks,32753,15,Low,10.9507,Value,Value,1.2194,1.147939815,Female,21,166
effortratingclicks,32753,15,Low,10.9507,ValueLiking,Liking,2.4353,3.094699074,Female,21,166
effortratingclicks,32753,16,High,66.9533,Liking,Liking,2.9836,2.570231481,Female,21,166
effortratingclicks,32753,16,High,66.9533,LikingValue,Value,1.7848,4.02537037,Female,21,166
effortratingclicks,32753,17,Low,11.7515,Liking,Liking,3.4012,2.397083333,Female,21,166
effortratingclicks,32753,17,Low,11.7515,LikingValue,Value,2.7037,2.231921296,Female,21,166
effortratingclicks,32753,18,Medium,26.5189,Liking,Liking,2.7538,3.215208333,Female,21,166
effortratingclicks,32753,18,Medium,26.5189,LikingValue,Value,2.3027,2.871828704,Female,21,166
effortratingclicks,40350,1,Low,20.0137,Value,Value,5.1378,2.012345679,Female,21,99
effortratingclicks,40350,1,Low,20.0137,ValueLiking,Liking,4.5187,2.017283951,Female,21,99
effortratingclicks,40350,2,Medium,34.1177,Value,Value,4.0392,4.081481481,Female,21,99
effortratingclicks,40350,2,Medium,34.1177,ValueLiking,Liking,2.3917,4.017283951,Female,21,99
effortratingclicks,40350,3,High,64.0011,Liking,Liking,3.6749,3.414814815,Female,21,99
effortratingclicks,40350,3,High,64.0011,LikingValue,Value,6.3248,3.641975309,Female,21,99
effortratingclicks,40350,4,Low,11.3681,Value,Value,4.5629,2.896296296,Female,21,99
effortratingclicks,40350,4,Low,11.3681,ValueLiking,Liking,0.8743,1.118518519,Female,21,99
effortratingclicks,40350,5,High,60.9845,Liking,Liking,4.1796,3.730864198,Female,21,99
effortratingclicks,40350,5,High,60.9845,LikingValue,Value,0.9877,1.967901235,Female,21,99
effortratingclicks,40350,6,Medium,29.9346,Liking,Liking,1.9902,4.367901235,Female,21,99
effortratingclicks,40350,6,Medium,29.9346,LikingValue,Value,1.4561,3.597530864,Female,21,99
effortratingclicks,40350,7,High,58.4448,Liking,Liking,2.5953,2.802469136,Female,21,99
effortratingclicks,40350,7,High,58.4448,LikingValue,Value,0.7081,4.679012346,Female,21,99
effortratingclicks,40350,8,Medium,29.285,Liking,Liking,2.0558,4.298765432,Female,21,99
effortratingclicks,40350,8,Medium,29.285,LikingValue,Value,0.5694,4.930864198,Female,21,99
effortratingclicks,40350,9,Low,10.0997,Liking,Liking,2.0213,3.479012346,Female,21,99
effortratingclicks,40350,9,Low,10.0997,LikingValue,Value,0.8616,3.474074074,Female,21,99
effortratingclicks,40350,10,Medium,29.1154,Liking,Liking,3.2332,4.980246914,Female,21,99
effortratingclicks,40350,10,Medium,29.1154,LikingValue,Value,4.2246,2.402469136,Female,21,99
effortratingclicks,40350,11,Low,12.5017,Value,Value,4.7138,1.088888889,Female,21,99
effortratingclicks,40350,11,Low,12.5017,ValueLiking,Liking,1.0391,1.074074074,Female,21,99
effortratingclicks,40350,12,High,65.2396,Value,Value,10.2837,3.918518519,Female,21,99
effortratingclicks,40350,12,High,65.2396,ValueLiking,Liking,2.0998,1,Female,21,99
effortratingclicks,40350,13,Medium,35.1989,Liking,Liking,2.9045,2.022222222,Female,21,99
effortratingclicks,40350,13,Medium,35.1989,LikingValue,Value,3.3549,1.89382716,Female,21,99
effortratingclicks,40350,14,High,59.8012,Liking,Liking,3.3701,3.637037037,Female,21,99
effortratingclicks,40350,14,High,59.8012,LikingValue,Value,0.7606,2.925925926,Female,21,99
effortratingclicks,40350,15,Low,10.4848,Liking,Liking,3.1135,2.654320988,Female,21,99
effortratingclicks,40350,15,Low,10.4848,LikingValue,Value,1.2176,1.004938272,Female,21,99
effortratingclicks,40350,16,High,56.1845,Liking,Liking,4.9813,1.844444444,Female,21,99
effortratingclicks,40350,16,High,56.1845,LikingValue,Value,1.0961,2.017283951,Female,21,99
effortratingclicks,40350,17,Low,13.3015,Value,Value,2.924,2.609876543,Female,21,99
effortratingclicks,40350,17,Low,13.3015,ValueLiking,Liking,0.6133,4.209876543,Female,21,99
effortratingclicks,40350,18,Medium,26.9341,Value,Value,2.8462,2.066666667,Female,21,99
effortratingclicks,40350,18,Medium,26.9341,ValueLiking,Liking,1.2212,3.513580247,Female,21,99
effortratingclicks,43067,1,Low,18.5686,Value,Value,5.8873,1.983333333,Female,19,446
effortratingclicks,43067,1,Low,18.5686,ValueLiking,Liking,4.9164,1.995578704,Female,19,446
effortratingclicks,43067,2,Medium,26.7201,Liking,Liking,3.6361,2.981388889,Female,19,446
effortratingclicks,43067,2,Medium,26.7201,LikingValue,Value,2.7687,2.989074074,Female,19,446
effortratingclicks,43067,3,High,60.2177,Liking,Liking,2.5838,2.972199074,Female,19,446
effortratingclicks,43067,3,High,60.2177,LikingValue,Value,0.6201,2.974560185,Female,19,446
effortratingclicks,43067,4,Low,14.1669,Liking,Liking,3.8329,1.933865741,Female,19,446
effortratingclicks,43067,4,Low,14.1669,LikingValue,Value,0.7857,1.99337963,Female,19,446
effortratingclicks,43067,5,High,78.4336,Value,Value,1.3526,1.025347222,Female,19,446
effortratingclicks,43067,5,High,78.4336,ValueLiking,Liking,1.7195,1.017592593,Female,19,446
effortratingclicks,43067,6,Medium,30.7003,Value,Value,5.0665,2.001203704,Female,19,446
effortratingclicks,43067,6,Medium,30.7003,ValueLiking,Liking,0.5904,1.973402778,Female,19,446
effortratingclicks,43067,7,High,54.467,Value,Value,1.9533,1.037847222,Female,19,446
effortratingclicks,43067,7,High,54.467,ValueLiking,Liking,1.169,1.06462963,Female,19,446
effortratingclicks,43067,8,Medium,25.8672,Liking,Liking,1.9041,3.989351852,Female,19,446
effortratingclicks,43067,8,Medium,25.8672,LikingValue,Value,0.6365,3.993981481,Female,19,446
effortratingclicks,43067,9,Low,10.9659,Liking,Liking,1.0029,3.005925926,Female,19,446
effortratingclicks,43067,9,Low,10.9659,LikingValue,Value,0.786,2.991921296,Female,19,446
effortratingclicks,43067,10,Medium,30.3176,Value,Value,1.1214,1.99650463,Female,19,446
effortratingclicks,43067,10,Medium,30.3176,ValueLiking,Liking,3.121,1.042569444,Female,19,446
effortratingclicks,43067,11,Low,12.0019,Value,Value,1.2849,3.948287037,Female,19,446
effortratingclicks,43067,11,Low,12.0019,ValueLiking,Liking,0.7026,3.95349537,Female,19,446
effortratingclicks,43067,12,High,56.6338,Value,Value,2.985,1.033912037,Female,19,446
effortratingclicks,43067,12,High,56.6338,ValueLiking,Liking,1.0195,1.004953704,Female,19,446
effortratingclicks,43067,13,Medium,29.4325,Value,Value,2.4,4.952638889,Female,19,446
effortratingclicks,43067,13,Medium,29.4325,ValueLiking,Liking,0.5385,4.969537037,Female,19,446
effortratingclicks,43067,14,High,60.7508,Value,Value,1.7688,1.058287037,Female,19,446
effortratingclicks,43067,14,High,60.7508,ValueLiking,Liking,1.1363,1.071828704,Female,19,446
effortratingclicks,43067,15,Low,14.849,Liking,Liking,4.5665,2.271342593,Female,19,446
effortratingclicks,43067,15,Low,14.849,LikingValue,Value,0.9531,2.245763889,Female,19,446
effortratingclicks,43067,16,High,60.6336,Value,Value,2.5358,2.001643519,Female,19,446
effortratingclicks,43067,16,High,60.6336,ValueLiking,Liking,2.3878,1.746041667,Female,19,446
effortratingclicks,43067,17,Low,11.4993,Liking,Liking,1.3021,2.984375,Female,19,446
effortratingclicks,43067,17,Low,11.4993,LikingValue,Value,1.003,2.977175926,Female,19,446
effortratingclicks,43067,18,Medium,31.0328,Liking,Liking,1.4895,4.022453704,Female,19,446
effortratingclicks,43067,18,Medium,31.0328,LikingValue,Value,0.7862,4.000902778,Female,19,446
effortratingclicks,39253,1,Low,12.584,Liking,Liking,7.112,2.01037037,Male,20,146
effortratingclicks,39253,1,Low,12.584,LikingValue,Value,2.945,2.022222222,Male,20,146
effortratingclicks,39253,2,Medium,32.033,Liking,Liking,2.073,1.056296296,Male,20,146
effortratingclicks,39253,2,Medium,32.033,LikingValue,Value,1.323,3.865185185,Male,20,146
effortratingclicks,39253,3,High,62.832,Value,Value,1.739,2.271111111,Male,20,146
effortratingclicks,39253,3,High,62.832,ValueLiking,Liking,1.324,1.014814815,Male,20,146
effortratingclicks,39253,4,Low,11.1,Liking,Liking,1.622,4.878518519,Male,20,146
effortratingclicks,39253,4,Low,11.1,LikingValue,Value,1.839,1.607407407,Male,20,146
effortratingclicks,39253,5,High,61.233,Liking,Liking,2.407,2.976296296,Male,20,146
effortratingclicks,39253,5,High,61.233,LikingValue,Value,3.127,2.395555556,Male,20,146
effortratingclicks,39253,6,Medium,27.3,Value,Value,0.646,1.980740741,Male,20,146
effortratingclicks,39253,6,Medium,27.3,ValueLiking,Liking,0.744,3.106666667,Male,20,146
effortratingclicks,39253,7,High,53.8,Value,Value,0.941,1.921481481,Male,20,146
effortratingclicks,39253,7,High,53.8,ValueLiking,Liking,0.722,3.521481481,Male,20,146
effortratingclicks,39253,8,Medium,34.314,Value,Value,15.877,2.620740741,Male,20,146
effortratingclicks,39253,8,Medium,34.314,ValueLiking,Liking,0.923,1.945185185,Male,20,146
effortratingclicks,39253,9,Low,11.116,Value,Value,2.806,1.619259259,Male,20,146
effortratingclicks,39253,9,Low,11.116,ValueLiking,Liking,0.647,4.422222222,Male,20,146
effortratingclicks,39253,10,Medium,25.166,Liking,Liking,2.79,3.61037037,Male,20,146
effortratingclicks,39253,10,Medium,25.166,LikingValue,Value,0.589,2.922962963,Male,20,146
effortratingclicks,39253,11,Low,9.966,Liking,Liking,2.977,4.961481481,Male,20,146
effortratingclicks,39253,11,Low,9.966,LikingValue,Value,0.789,3.106666667,Male,20,146
effortratingclicks,39253,12,High,57.966,Value,Value,3.524,4.019259259,Male,20,146
effortratingclicks,39253,12,High,57.966,ValueLiking,Liking,0.712,1.358518519,Male,20,146
effortratingclicks,39253,13,Medium,29.132,Liking,Liking,2.946,3.82962963,Male,20,146
effortratingclicks,39253,13,Medium,29.132,LikingValue,Value,0.673,4.357037037,Male,20,146
effortratingclicks,39253,14,High,53.366,Value,Value,5.944,2.075555556,Male,20,146
effortratingclicks,39253,14,High,53.366,ValueLiking,Liking,1.045,3.693333333,Male,20,146
effortratingclicks,39253,15,Low,11.547,Liking,Liking,12.323,4.62962963,Male,20,146
effortratingclicks,39253,15,Low,11.547,LikingValue,Value,1.606,3.005925926,Male,20,146
effortratingclicks,39253,16,High,55.35,Liking,Liking,1.69,2.04,Male,20,146
effortratingclicks,39253,16,High,55.35,LikingValue,Value,1.978,2.703703704,Male,20,146
effortratingclicks,39253,17,Low,12.35,Liking,Liking,1.272,3.545185185,Male,20,146
effortratingclicks,39253,17,Low,12.35,LikingValue,Value,1.706,1.957037037,Male,20,146
effortratingclicks,39253,18,Medium,27.699,Liking,Liking,2.464,3.521481481,Male,20,146
effortratingclicks,39253,18,Medium,27.699,LikingValue,Value,3.356,2.01037037,Male,20,146
effortratingclicks,41381,1,Low,13.9169,Liking,Liking,7.3,2.019879196,Male,21,270
effortratingclicks,41381,1,Low,13.9169,LikingValue,Value,4.48,2.024493634,Male,21,270
effortratingclicks,41381,2,Medium,46.3679,Value,Value,3.1388,2.99805013,Male,21,270
effortratingclicks,41381,2,Medium,46.3679,ValueLiking,Liking,2.9016,4.025451389,Male,21,270
effortratingclicks,41381,3,High,65.6493,Liking,Liking,2.1692,4.974058883,Male,21,270
effortratingclicks,41381,3,High,65.6493,LikingValue,Value,1.3341,4.005347222,Male,21,270
effortratingclicks,41381,4,Low,11.4995,Value,Value,2.9992,2.020037616,Male,21,270
effortratingclicks,41381,4,Low,11.4995,ValueLiking,Liking,2.9889,2.941000434,Male,21,270
effortratingclicks,41381,5,High,59.7491,Value,Value,2.0383,3.968929398,Male,21,270
effortratingclicks,41381,5,High,59.7491,ValueLiking,Liking,0.8617,3.059357639,Male,21,270
effortratingclicks,41381,6,Medium,27.1341,Value,Value,3.3014,4.078886357,Male,21,270
effortratingclicks,41381,6,Medium,27.1341,ValueLiking,Liking,0.9784,3.931974826,Male,21,270
effortratingclicks,41381,7,High,65.2661,Liking,Liking,1.3725,3.81768627,Male,21,270
effortratingclicks,41381,7,High,65.2661,LikingValue,Value,0.7882,2.355815249,Male,21,270
effortratingclicks,41381,8,Medium,29.5677,Value,Value,3.1053,4.540785229,Male,21,270
effortratingclicks,41381,8,Medium,29.5677,ValueLiking,Liking,1.0372,3.037907986,Male,21,270
effortratingclicks,41381,9,Low,11.1207,Value,Value,2.6014,3.969466869,Male,21,270
effortratingclicks,41381,9,Low,11.1207,ValueLiking,Liking,2.2615,3.917209563,Male,21,270
effortratingclicks,41381,10,Medium,26.086,Liking,Liking,0.59,2.951236256,Male,21,270
effortratingclicks,41381,10,Medium,26.086,LikingValue,Value,0.5382,2.342799117,Male,21,270
effortratingclicks,41381,11,Low,9.2023,Value,Value,1.1463,4.349905599,Male,21,270
effortratingclicks,41381,11,Low,9.2023,ValueLiking,Liking,4.1886,3.922008825,Male,21,270
effortratingclicks,41381,12,High,67.3827,Liking,Liking,2.1397,3.252395833,Male,21,270
effortratingclicks,41381,12,High,67.3827,LikingValue,Value,1.2136,1.772440321,Male,21,270
effortratingclicks,41381,13,Medium,30.4998,Value,Value,2.0942,2.674275897,Male,21,270
effortratingclicks,41381,13,Medium,30.4998,ValueLiking,Liking,1.8785,3.443424841,Male,21,270
effortratingclicks,41381,14,High,58.0359,Liking,Liking,5.1978,3.181120515,Male,21,270
effortratingclicks,41381,14,High,58.0359,LikingValue,Value,2.6223,3.291341146,Male,21,270
effortratingclicks,41381,15,Low,12.2173,Liking,Liking,3.7601,3.623791233,Male,21,270
effortratingclicks,41381,15,Low,12.2173,LikingValue,Value,0.4567,4.134100839,Male,21,270
effortratingclicks,41381,16,High,60.7499,Value,Value,1.7936,3.00772678,Male,21,270
effortratingclicks,41381,16,High,60.7499,ValueLiking,Liking,3.1374,2.195660084,Male,21,270
effortratingclicks,41381,17,Low,12.3686,Value,Value,4.4505,3.416739366,Male,21,270
effortratingclicks,41381,17,Low,12.3686,ValueLiking,Liking,6.0224,2.960661531,Male,21,270
effortratingclicks,41381,18,Medium,29.0848,Liking,Liking,4.2278,2.812573785,Male,21,270
effortratingclicks,41381,18,Medium,29.0848,LikingValue,Value,2.0955,4.836549479,Male,21,270
effortratingclicks,32393,1,Low,16.072,Liking,Liking,4.077,3.98962963,Female,21,208
effortratingclicks,32393,1,Low,16.072,LikingValue,Value,4.695,2.016296296,Female,21,208
effortratingclicks,32393,2,Medium,41.281,Liking,Liking,4.112,2.994074074,Female,21,208
effortratingclicks,32393,2,Medium,41.281,LikingValue,Value,2.454,3.023703704,Female,21,208
effortratingclicks,32393,3,High,57.133,Value,Value,2.339,3.017777778,Female,21,208
effortratingclicks,32393,3,High,57.133,ValueLiking,Liking,3.774,3.005925926,Female,21,208
effortratingclicks,32393,4,Low,10.899,Value,Value,4.836,4.031111111,Female,21,208
effortratingclicks,32393,4,Low,10.899,ValueLiking,Liking,2.127,4.031111111,Female,21,208
effortratingclicks,32393,5,High,57.764,Value,Value,4.076,4.007407407,Female,21,208
effortratingclicks,32393,5,High,57.764,ValueLiking,Liking,3.536,2.97037037,Female,21,208
effortratingclicks,32393,6,Medium,31.499,Value,Value,3.886,2.194074074,Female,21,208
effortratingclicks,32393,6,Medium,31.499,ValueLiking,Liking,5.244,3.053333333,Female,21,208
effortratingclicks,32393,7,High,63.432,Value,Value,3.264,2.922962963,Female,21,208
effortratingclicks,32393,7,High,63.432,ValueLiking,Liking,3.229,2.585185185,Female,21,208
effortratingclicks,32393,8,Medium,28.648,Liking,Liking,9.137,2.028148148,Female,21,208
effortratingclicks,32393,8,Medium,28.648,LikingValue,Value,2.923,1.856296296,Female,21,208
effortratingclicks,32393,9,Low,11.399,Liking,Liking,4.975,2.271111111,Female,21,208
effortratingclicks,32393,9,Low,11.399,LikingValue,Value,1.619,2.466666667,Female,21,208
effortratingclicks,32393,10,Medium,29.383,Liking,Liking,3.522,1.832592593,Female,21,208
