experiment_name,experiment_id,id,trial,effort_level,effort_time,component,rt,rating,gender,age,nasa_tlx
effortratingclickstaskload,2347,27329,1,Low,15.4143,Mental,4.0232,2.015422635,Female,22,418
effortratingclickstaskload,2347,27329,1,Low,15.4143,Temporal,6.0166,11.01064019,Female,22,418
effortratingclickstaskload,2347,27329,1,Low,15.4143,Performance,4.0031,1.056368273,Female,22,418
effortratingclickstaskload,2347,27329,1,Low,15.4143,Pleasure,2.4528,9.146571181,Female,22,418
effortratingclickstaskload,2347,27329,1,Low,15.4143,Frustration,3.0309,15.14189128,Female,22,418
effortratingclickstaskload,2347,27329,1,Low,15.4143,Physical,1.9561,1.941254069,Female,22,418
effortratingclickstaskload,2347,27329,1,Low,15.4143,Effort,3.748,3.062972005,Female,22,418
effortratingclickstaskload,2347,27329,2,Medium,57.9499,Mental,1.7968,4.081464301,Female,22,418
effortratingclickstaskload,2347,27329,2,Medium,57.9499,Physical,1.3419,3.967195095,Female,22,418
effortratingclickstaskload,2347,27329,2,Medium,57.9499,Frustration,1.5202,17.14594618,Female,22,418
effortratingclickstaskload,2347,27329,2,Medium,57.9499,Performance,2.4726,1.007647569,Female,22,418
effortratingclickstaskload,2347,27329,2,Medium,57.9499,Temporal,1.2938,15.14086589,Female,22,418
effortratingclickstaskload,2347,27329,2,Medium,57.9499,Effort,2.4734,6.086436632,Female,22,418
effortratingclickstaskload,2347,27329,2,Medium,57.9499,Pleasure,2.9041,2.011987847,Female,22,418
effortratingclickstaskload,2347,27329,3,High,67.1124,Performance,12.0238,1.063558214,Female,22,418
effortratingclickstaskload,2347,27329,3,High,67.1124,Mental,2.7149,7.910759549,Female,22,418
effortratingclickstaskload,2347,27329,3,High,67.1124,Frustration,2.2415,13.74726454,Female,22,418
effortratingclickstaskload,2347,27329,3,High,67.1124,Temporal,2.536,8.621375868,Female,22,418
effortratingclickstaskload,2347,27329,3,High,67.1124,Physical,1.8389,5.821633572,Female,22,418
effortratingclickstaskload,2347,27329,3,High,67.1124,Effort,2.4959,16.1905306,Female,22,418
effortratingclickstaskload,2347,27329,3,High,67.1124,Pleasure,2.6109,1.000660265,Female,22,418
effortratingclickstaskload,2347,27329,4,Low,10.9125,Pleasure,1.8871,15.98955078,Female,22,418
effortratingclickstaskload,2347,27329,4,Low,10.9125,Temporal,1.9407,3.757046441,Female,22,418
effortratingclickstaskload,2347,27329,4,Low,10.9125,Mental,1.8556,2.019145237,Female,22,418
effortratingclickstaskload,2347,27329,4,Low,10.9125,Physical,1.4427,1.579665527,Female,22,418
effortratingclickstaskload,2347,27329,4,Low,10.9125,Performance,2.7171,1.089512533,Female,22,418
effortratingclickstaskload,2347,27329,4,Low,10.9125,Effort,3.199,2.176467828,Female,22,418
effortratingclickstaskload,2347,27329,4,Low,10.9125,Frustration,4.1632,2.042017144,Female,22,418
effortratingclickstaskload,2347,27329,5,High,61.2364,Mental,2.9472,16.61960286,Female,22,418
effortratingclickstaskload,2347,27329,5,High,61.2364,Physical,2.2765,17.38818793,Female,22,418
effortratingclickstaskload,2347,27329,5,High,61.2364,Pleasure,1.5625,1.025638835,Female,22,418
effortratingclickstaskload,2347,27329,5,High,61.2364,Temporal,3.9775,15.69076497,Female,22,418
effortratingclickstaskload,2347,27329,5,High,61.2364,Performance,2.3115,1.077929145,Female,22,418
effortratingclickstaskload,2347,27329,5,High,61.2364,Effort,1.9274,17.95341146,Female,22,418
effortratingclickstaskload,2347,27329,5,High,61.2364,Frustration,1.2728,18.19970269,Female,22,418
effortratingclickstaskload,2347,27329,6,Medium,25.7444,Temporal,2.1634,7.836242405,Female,22,418
effortratingclickstaskload,2347,27329,6,Medium,25.7444,Frustration,1.7605,8.12874783,Female,22,418
effortratingclickstaskload,2347,27329,6,Medium,25.7444,Physical,1.677,3.717261285,Female,22,418
effortratingclickstaskload,2347,27329,6,Medium,25.7444,Effort,1.9907,10.08718859,Female,22,418
effortratingclickstaskload,2347,27329,6,Medium,25.7444,Pleasure,2.2457,1.496898329,Female,22,418
effortratingclickstaskload,2347,27329,6,Medium,25.7444,Mental,2.0728,7.780748698,Female,22,418
effortratingclickstaskload,2347,27329,6,Medium,25.7444,Performance,2.4612,1.014816352,Female,22,418
effortratingclickstaskload,2347,27329,7,High,57.7094,Effort,2.441,16.96035373,Female,22,418
effortratingclickstaskload,2347,27329,7,High,57.7094,Pleasure,1.9268,1.172304145,Female,22,418
effortratingclickstaskload,2347,27329,7,High,57.7094,Physical,1.6994,15.36143121,Female,22,418
effortratingclickstaskload,2347,27329,7,High,57.7094,Mental,1.5696,16.24993164,Female,22,418
effortratingclickstaskload,2347,27329,7,High,57.7094,Frustration,1.5756,20.37053602,Female,22,418
effortratingclickstaskload,2347,27329,7,High,57.7094,Temporal,1.6962,17.46719618,Female,22,418
effortratingclickstaskload,2347,27329,7,High,57.7094,Performance,1.3801,1.101785482,Female,22,418
effortratingclickstaskload,2347,27329,8,Medium,27.3482,Temporal,2.4791,9.372753906,Female,22,418
effortratingclickstaskload,2347,27329,8,Medium,27.3482,Physical,0.997,9.478368056,Female,22,418
effortratingclickstaskload,2347,27329,8,Medium,27.3482,Performance,1.858,1.268014323,Female,22,418
effortratingclickstaskload,2347,27329,8,Medium,27.3482,Pleasure,2.5545,6.155022786,Female,22,418
effortratingclickstaskload,2347,27329,8,Medium,27.3482,Frustration,1.2563,10.68187717,Female,22,418
effortratingclickstaskload,2347,27329,8,Medium,27.3482,Mental,2.4244,7.521971571,Female,22,418
effortratingclickstaskload,2347,27329,8,Medium,27.3482,Effort,1.6604,8.973485243,Female,22,418
effortratingclickstaskload,2347,27329,9,Low,10.0742,Physical,2.2216,1.647409668,Female,22,418
effortratingclickstaskload,2347,27329,9,Low,10.0742,Performance,2.2425,1.051270888,Female,22,418
effortratingclickstaskload,2347,27329,9,Low,10.0742,Pleasure,1.5341,17.0626671,Female,22,418
effortratingclickstaskload,2347,27329,9,Low,10.0742,Frustration,1.7556,2.473511556,Female,22,418
effortratingclickstaskload,2347,27329,9,Low,10.0742,Mental,1.0934,3.108345812,Female,22,418
effortratingclickstaskload,2347,27329,9,Low,10.0742,Effort,0.9219,2.137942166,Female,22,418
effortratingclickstaskload,2347,27329,9,Low,10.0742,Temporal,1.2299,3.488358832,Female,22,418
effortratingclickstaskload,2347,27329,10,Medium,27.3976,Physical,4.7423,9.756816406,Female,22,418
effortratingclickstaskload,2347,27329,10,Medium,27.3976,Mental,1.415,9.645138889,Female,22,418
effortratingclickstaskload,2347,27329,10,Medium,27.3976,Performance,1.283,1.158478733,Female,22,418
effortratingclickstaskload,2347,27329,10,Medium,27.3976,Temporal,1.6099,10.26942491,Female,22,418
effortratingclickstaskload,2347,27329,10,Medium,27.3976,Effort,2.6621,9.392560764,Female,22,418
effortratingclickstaskload,2347,27329,10,Medium,27.3976,Pleasure,1.6588,1.07070638,Female,22,418
effortratingclickstaskload,2347,27329,10,Medium,27.3976,Frustration,1.3144,16.6874197,Female,22,418
effortratingclickstaskload,2347,27329,11,Low,9.4954,Frustration,1.8006,1.830262044,Female,22,418
effortratingclickstaskload,2347,27329,11,Low,9.4954,Performance,2.09,1.191132813,Female,22,418
effortratingclickstaskload,2347,27329,11,Low,9.4954,Effort,2.6967,1.86350803,Female,22,418
effortratingclickstaskload,2347,27329,11,Low,9.4954,Physical,1.2556,2.645847439,Female,22,418
effortratingclickstaskload,2347,27329,11,Low,9.4954,Mental,1.2085,2.733515354,Female,22,418
effortratingclickstaskload,2347,27329,11,Low,9.4954,Pleasure,1.9585,18.08627387,Female,22,418
effortratingclickstaskload,2347,27329,11,Low,9.4954,Temporal,2.0413,1.729612359,Female,22,418
effortratingclickstaskload,2347,27329,12,High,61.2511,Pleasure,5.4601,1.039112684,Female,22,418
effortratingclickstaskload,2347,27329,12,High,61.2511,Temporal,2.0762,15.08175022,Female,22,418
effortratingclickstaskload,2347,27329,12,High,61.2511,Frustration,1.6446,20.97779731,Female,22,418
effortratingclickstaskload,2347,27329,12,High,61.2511,Effort,2.0082,20.66679036,Female,22,418
effortratingclickstaskload,2347,27329,12,High,61.2511,Mental,1.4253,19.87471137,Female,22,418
effortratingclickstaskload,2347,27329,12,High,61.2511,Physical,1.0926,19.75711372,Female,22,418
effortratingclickstaskload,2347,27329,12,High,61.2511,Performance,2.3184,1.073443468,Female,22,418
effortratingclickstaskload,2347,27329,13,Medium,27.458,Pleasure,1.3925,1.993435059,Female,22,418
effortratingclickstaskload,2347,27329,13,Medium,27.458,Mental,2.2116,17.23953125,Female,22,418
effortratingclickstaskload,2347,27329,13,Medium,27.458,Physical,1.0958,16.66248698,Female,22,418
effortratingclickstaskload,2347,27329,13,Medium,27.458,Effort,2.0227,14.40161892,Female,22,418
effortratingclickstaskload,2347,27329,13,Medium,27.458,Performance,2.4556,1.161968859,Female,22,418
effortratingclickstaskload,2347,27329,13,Medium,27.458,Frustration,1.0275,15.18264106,Female,22,418
effortratingclickstaskload,2347,27329,13,Medium,27.458,Temporal,2.0594,12.46231011,Female,22,418
effortratingclickstaskload,2347,27329,14,High,56.2965,Frustration,3.6801,18.38475477,Female,22,418
effortratingclickstaskload,2347,27329,14,High,56.2965,Mental,1.1913,18.92360026,Female,22,418
effortratingclickstaskload,2347,27329,14,High,56.2965,Effort,1.0887,19.0074566,Female,22,418
effortratingclickstaskload,2347,27329,14,High,56.2965,Temporal,1.3905,19.08147135,Female,22,418
effortratingclickstaskload,2347,27329,14,High,56.2965,Performance,1.5879,1.000546875,Female,22,418
effortratingclickstaskload,2347,27329,14,High,56.2965,Physical,1.0534,17.99230686,Female,22,418
effortratingclickstaskload,2347,27329,14,High,56.2965,Pleasure,2.4452,1.326385905,Female,22,418
effortratingclickstaskload,2347,27329,15,Low,11.2949,Frustration,1.9613,1.882997504,Female,22,418
effortratingclickstaskload,2347,27329,15,Low,11.2949,Performance,1.2413,1.047785916,Female,22,418
effortratingclickstaskload,2347,27329,15,Low,11.2949,Pleasure,2.9237,18.3631033,Female,22,418
effortratingclickstaskload,2347,27329,15,Low,11.2949,Mental,1.9741,2.197064345,Female,22,418
effortratingclickstaskload,2347,27329,15,Low,11.2949,Temporal,1.1808,2.752476128,Female,22,418
effortratingclickstaskload,2347,27329,15,Low,11.2949,Physical,0.5818,2.25412679,Female,22,418
effortratingclickstaskload,2347,27329,15,Low,11.2949,Effort,1.5046,2.309503038,Female,22,418
effortratingclickstaskload,2347,27329,16,High,58.4619,Pleasure,2.2414,1.035021973,Female,22,418
effortratingclickstaskload,2347,27329,16,High,58.4619,Performance,1.7069,1.138236491,Female,22,418
effortratingclickstaskload,2347,27329,16,High,58.4619,Effort,3.0374,20.5312066,Female,22,418
effortratingclickstaskload,2347,27329,16,High,58.4619,Mental,1.0083,20.77081163,Female,22,418
effortratingclickstaskload,2347,27329,16,High,58.4619,Physical,0.5531,20.10955078,Female,22,418
effortratingclickstaskload,2347,27329,16,High,58.4619,Frustration,0.9376,20.48175781,Female,22,418
effortratingclickstaskload,2347,27329,16,High,58.4619,Temporal,1.6704,20.2924197,Female,22,418
effortratingclickstaskload,2347,27329,17,Low,9.2001,Temporal,2.207,1.302417806,Female,22,418
effortratingclickstaskload,2347,27329,17,Low,9.2001,Pleasure,2.6601,13.5991352,Female,22,418
effortratingclickstaskload,2347,27329,17,Low,9.2001,Performance,1.8989,1.251422526,Female,22,418
effortratingclickstaskload,2347,27329,17,Low,9.2001,Mental,0.6902,1.898609755,Female,22,418
effortratingclickstaskload,2347,27329,17,Low,9.2001,Frustration,0.6643,2.243463813,Female,22,418
effortratingclickstaskload,2347,27329,17,Low,9.2001,Effort,0.5897,2.486929525,Female,22,418
effortratingclickstaskload,2347,27329,17,Low,9.2001,Physical,0.5897,2.618390842,Female,22,418
effortratingclickstaskload,2347,27329,18,Medium,28.0636,Pleasure,1.7048,1.072109646,Female,22,418
effortratingclickstaskload,2347,27329,18,Medium,28.0636,Temporal,4.222,9.343372396,Female,22,418
effortratingclickstaskload,2347,27329,18,Medium,28.0636,Effort,2.0642,13.15102973,Female,22,418
effortratingclickstaskload,2347,27329,18,Medium,28.0636,Frustration,1.41,14.91465929,Female,22,418
effortratingclickstaskload,2347,27329,18,Medium,28.0636,Performance,2.1395,1.133133409,Female,22,418
effortratingclickstaskload,2347,27329,18,Medium,28.0636,Physical,0.9583,16.44412326,Female,22,418
effortratingclickstaskload,2347,27329,18,Medium,28.0636,Mental,0.646,16.24649523,Female,22,418
effortratingclickstaskload,2347,28821,1,Low,18.19415,Physical,3.88435,1.040833333,Female,22,182
effortratingclickstaskload,2347,28821,1,Low,18.19415,Mental,5.105265,1.958541667,Female,22,182
effortratingclickstaskload,2347,28821,1,Low,18.19415,Pleasure,5.072715,11.00548611,Female,22,182
effortratingclickstaskload,2347,28821,1,Low,18.19415,Frustration,3.29258,2.072569444,Female,22,182
effortratingclickstaskload,2347,28821,1,Low,18.19415,Effort,3.223315,1.082986111,Female,22,182
effortratingclickstaskload,2347,28821,1,Low,18.19415,Temporal,3.39257,3.003402778,Female,22,182
effortratingclickstaskload,2347,28821,1,Low,18.19415,Performance,5.93694,1.063611111,Female,22,182
effortratingclickstaskload,2347,28821,2,Medium,29.131705,Frustration,3.224735,1.990625,Female,22,182
effortratingclickstaskload,2347,28821,2,Medium,29.131705,Effort,3.808085,1.914652778,Female,22,182
effortratingclickstaskload,2347,28821,2,Medium,29.131705,Physical,1.673895,1.118125,Female,22,182
effortratingclickstaskload,2347,28821,2,Medium,29.131705,Temporal,2.97515,3.013333333,Female,22,182
effortratingclickstaskload,2347,28821,2,Medium,29.131705,Mental,2.123755,1.980625,Female,22,182
effortratingclickstaskload,2347,28821,2,Medium,29.131705,Performance,4.85843,1.017569444,Female,22,182
effortratingclickstaskload,2347,28821,2,Medium,29.131705,Pleasure,4.875385,10.94902778,Female,22,182
effortratingclickstaskload,2347,28821,3,High,54.96552,Mental,4.27817,1.025277778,Female,22,182
effortratingclickstaskload,2347,28821,3,High,54.96552,Frustration,2.71165,1.996041667,Female,22,182
effortratingclickstaskload,2347,28821,3,High,54.96552,Pleasure,3.539385,7.072986111,Female,22,182
effortratingclickstaskload,2347,28821,3,High,54.96552,Temporal,2.174825,3.040138889,Female,22,182
effortratingclickstaskload,2347,28821,3,High,54.96552,Physical,1.689995,1.035763889,Female,22,182
effortratingclickstaskload,2347,28821,3,High,54.96552,Performance,2.35722,1.136527778,Female,22,182
effortratingclickstaskload,2347,28821,3,High,54.96552,Effort,2.62404,3.016875,Female,22,182
effortratingclickstaskload,2347,28821,4,Low,10.765755,Physical,1.69083,1.0125,Female,22,182
effortratingclickstaskload,2347,28821,4,Low,10.765755,Pleasure,2.09477,13.93777778,Female,22,182
effortratingclickstaskload,2347,28821,4,Low,10.765755,Temporal,1.69029,1.993194444,Female,22,182
effortratingclickstaskload,2347,28821,4,Low,10.765755,Mental,1.892475,1.012152778,Female,22,182
effortratingclickstaskload,2347,28821,4,Low,10.765755,Frustration,1.77337,1.126388889,Female,22,182
effortratingclickstaskload,2347,28821,4,Low,10.765755,Performance,4.00671,1.008611111,Female,22,182
effortratingclickstaskload,2347,28821,4,Low,10.765755,Effort,3.473085,1.182430556,Female,22,182
effortratingclickstaskload,2347,28821,5,High,53.615705,Frustration,10.822815,4.970486111,Female,22,182
effortratingclickstaskload,2347,28821,5,High,53.615705,Temporal,2.19146,2.969375,Female,22,182
effortratingclickstaskload,2347,28821,5,High,53.615705,Mental,3.17604,1.009513889,Female,22,182
effortratingclickstaskload,2347,28821,5,High,53.615705,Pleasure,2.259295,7.034722222,Female,22,182
effortratingclickstaskload,2347,28821,5,High,53.615705,Effort,2.65731,2.926736111,Female,22,182
effortratingclickstaskload,2347,28821,5,High,53.615705,Physical,2.80766,1.025138889,Female,22,182
effortratingclickstaskload,2347,28821,5,High,53.615705,Performance,2.26015,1.074375,Female,22,182
effortratingclickstaskload,2347,28821,6,Medium,26.18411,Pleasure,2.52238,10.90840278,Female,22,182
effortratingclickstaskload,2347,28821,6,Medium,26.18411,Physical,1.82555,1.040763889,Female,22,182
effortratingclickstaskload,2347,28821,6,Medium,26.18411,Performance,5.208295,1.029791667,Female,22,182
effortratingclickstaskload,2347,28821,6,Medium,26.18411,Mental,1.840305,1.073680556,Female,22,182
effortratingclickstaskload,2347,28821,6,Medium,26.18411,Frustration,2.907185,1.991388889,Female,22,182
effortratingclickstaskload,2347,28821,6,Medium,26.18411,Effort,4.743435,2.089513889,Female,22,182
effortratingclickstaskload,2347,28821,6,Medium,26.18411,Temporal,1.475825,1.843819444,Female,22,182
effortratingclickstaskload,2347,28821,7,High,52.2476,Physical,2.07646,1.025763889,Female,22,182
effortratingclickstaskload,2347,28821,7,High,52.2476,Performance,2.99152,1.139097222,Female,22,182
effortratingclickstaskload,2347,28821,7,High,52.2476,Temporal,1.5615,2.069791667,Female,22,182
effortratingclickstaskload,2347,28821,7,High,52.2476,Frustration,3.628285,4.133819444,Female,22,182
effortratingclickstaskload,2347,28821,7,High,52.2476,Effort,2.030135,1.070208333,Female,22,182
effortratingclickstaskload,2347,28821,7,High,52.2476,Mental,9.45566,1.080277778,Female,22,182
effortratingclickstaskload,2347,28821,7,High,52.2476,Pleasure,2.273345,7.076597222,Female,22,182
effortratingclickstaskload,2347,28821,8,Medium,23.799345,Frustration,1.753165,1.050138889,Female,22,182
effortratingclickstaskload,2347,28821,8,Medium,23.799345,Pleasure,2.723785,8.954027778,Female,22,182
effortratingclickstaskload,2347,28821,8,Medium,23.799345,Physical,3.97413,1.024652778,Female,22,182
effortratingclickstaskload,2347,28821,8,Medium,23.799345,Temporal,5.526375,5.066805556,Female,22,182
effortratingclickstaskload,2347,28821,8,Medium,23.799345,Effort,2.533475,1.037916667,Female,22,182
effortratingclickstaskload,2347,28821,8,Medium,23.799345,Performance,3.30742,1.005625,Female,22,182
effortratingclickstaskload,2347,28821,8,Medium,23.799345,Mental,2.140415,1.01125,Female,22,182
effortratingclickstaskload,2347,28821,9,Low,9.148365,Effort,2.49172,1.0276388890000001,Female,22,182
effortratingclickstaskload,2347,28821,9,Low,9.148365,Pleasure,2.394625,17.09243056,Female,22,182
effortratingclickstaskload,2347,28821,9,Low,9.148365,Frustration,1.871905,1.051041667,Female,22,182
effortratingclickstaskload,2347,28821,9,Low,9.148365,Physical,2.25939,1.086388889,Female,22,182
effortratingclickstaskload,2347,28821,9,Low,9.148365,Performance,3.128545,1.015416667,Female,22,182
effortratingclickstaskload,2347,28821,9,Low,9.148365,Temporal,3.99358,5.067986111,Female,22,182
effortratingclickstaskload,2347,28821,9,Low,9.148365,Mental,16.30895,1.011388889,Female,22,182
effortratingclickstaskload,2347,28821,10,Medium,24.28159,Pleasure,2.890585,7.037152778,Female,22,182
effortratingclickstaskload,2347,28821,10,Medium,24.28159,Performance,1.591125,1.063819444,Female,22,182
effortratingclickstaskload,2347,28821,10,Medium,24.28159,Mental,1.753835,1.013333333,Female,22,182
effortratingclickstaskload,2347,28821,10,Medium,24.28159,Temporal,2.25751,6.955763889,Female,22,182
effortratingclickstaskload,2347,28821,10,Medium,24.28159,Physical,1.691155,1.014444444,Female,22,182
effortratingclickstaskload,2347,28821,10,Medium,24.28159,Frustration,2.50764,4.071666667,Female,22,182
effortratingclickstaskload,2347,28821,10,Medium,24.28159,Effort,3.29354,1.958819444,Female,22,182
effortratingclickstaskload,2347,28821,11,Low,10.097425,Physical,1.70762,1.122777778,Female,22,182
effortratingclickstaskload,2347,28821,11,Low,10.097425,Temporal,1.458415,14.08090278,Female,22,182
effortratingclickstaskload,2347,28821,11,Low,10.097425,Mental,1.35785,1.057847222,Female,22,182
effortratingclickstaskload,2347,28821,11,Low,10.097425,Performance,2.625175,1.017430556,Female,22,182
effortratingclickstaskload,2347,28821,11,Low,10.097425,Pleasure,3.340845,13.98,Female,22,182
effortratingclickstaskload,2347,28821,11,Low,10.097425,Effort,2.42503,1.059027778,Female,22,182
effortratingclickstaskload,2347,28821,11,Low,10.097425,Frustration,1.80743,1.012291667,Female,22,182
effortratingclickstaskload,2347,28821,12,High,50.68313,Frustration,4.734855,10.94645833,Female,22,182
effortratingclickstaskload,2347,28821,12,High,50.68313,Effort,2.189665,1.967847222,Female,22,182
effortratingclickstaskload,2347,28821,12,High,50.68313,Performance,3.34263,1.054444444,Female,22,182
effortratingclickstaskload,2347,28821,12,High,50.68313,Pleasure,1.823755,4.01,Female,22,182
effortratingclickstaskload,2347,28821,12,High,50.68313,Mental,1.97118,1.078472222,Female,22,182
effortratingclickstaskload,2347,28821,12,High,50.68313,Physical,1.58938,1.103055556,Female,22,182
effortratingclickstaskload,2347,28821,12,High,50.68313,Temporal,2.40369,3.095694444,Female,22,182
effortratingclickstaskload,2347,28821,13,Medium,24.08076,Temporal,2.15371,5.039930556,Female,22,182
effortratingclickstaskload,2347,28821,13,Medium,24.08076,Physical,2.71045,1.1525,Female,22,182
effortratingclickstaskload,2347,28821,13,Medium,24.08076,Mental,1.73019,1.128958333,Female,22,182
effortratingclickstaskload,2347,28821,13,Medium,24.08076,Pleasure,2.67564,11.15791667,Female,22,182
effortratingclickstaskload,2347,28821,13,Medium,24.08076,Frustration,2.49274,2.118680556,Female,22,182
effortratingclickstaskload,2347,28821,13,Medium,24.08076,Performance,1.878455,1.063819444,Female,22,182
effortratingclickstaskload,2347,28821,13,Medium,24.08076,Effort,1.563,1.083611111,Female,22,182
effortratingclickstaskload,2347,28821,14,High,54.93282,Effort,2.610855,4.070902778,Female,22,182
effortratingclickstaskload,2347,28821,14,High,54.93282,Performance,1.774065,1.014027778,Female,22,182
effortratingclickstaskload,2347,28821,14,High,54.93282,Mental,1.94297,1.290694444,Female,22,182
effortratingclickstaskload,2347,28821,14,High,54.93282,Physical,1.724315,1.018888889,Female,22,182
effortratingclickstaskload,2347,28821,14,High,54.93282,Frustration,3.022735,6.929791667,Female,22,182
effortratingclickstaskload,2347,28821,14,High,54.93282,Temporal,1.89192,2.99125,Female,22,182
effortratingclickstaskload,2347,28821,14,High,54.93282,Pleasure,2.509675,6.068680556,Female,22,182
effortratingclickstaskload,2347,28821,15,Low,9.147935,Mental,2.66524,1.111875,Female,22,182
effortratingclickstaskload,2347,28821,15,Low,9.147935,Performance,1.75679,1.114583333,Female,22,182
effortratingclickstaskload,2347,28821,15,Low,9.147935,Physical,1.80678,1.007986111,Female,22,182
effortratingclickstaskload,2347,28821,15,Low,9.147935,Pleasure,1.874035,17.78388889,Female,22,182
effortratingclickstaskload,2347,28821,15,Low,9.147935,Frustration,1.82375,1.055069444,Female,22,182
effortratingclickstaskload,2347,28821,15,Low,9.147935,Temporal,1.88771,15.02555556,Female,22,182
effortratingclickstaskload,2347,28821,15,Low,9.147935,Effort,4.237055,1.050277778,Female,22,182
effortratingclickstaskload,2347,28821,16,High,54.34871,Pleasure,2.274455,4.997916667,Female,22,182
effortratingclickstaskload,2347,28821,16,High,54.34871,Performance,2.65935,1.378055556,Female,22,182
effortratingclickstaskload,2347,28821,16,High,54.34871,Temporal,2.658635,1.991180556,Female,22,182
effortratingclickstaskload,2347,28821,16,High,54.34871,Effort,1.927555,1.061666667,Female,22,182
effortratingclickstaskload,2347,28821,16,High,54.34871,Physical,1.43859,1.001458333,Female,22,182
effortratingclickstaskload,2347,28821,16,High,54.34871,Mental,1.72903,1.083194444,Female,22,182
effortratingclickstaskload,2347,28821,16,High,54.34871,Frustration,3.02516,6.104930556,Female,22,182
effortratingclickstaskload,2347,28821,17,Low,9.430475,Physical,2.42373,1.060625,Female,22,182
effortratingclickstaskload,2347,28821,17,Low,9.430475,Effort,3.02704,1.081180556,Female,22,182
effortratingclickstaskload,2347,28821,17,Low,9.430475,Mental,2.004235,1.020486111,Female,22,182
effortratingclickstaskload,2347,28821,17,Low,9.430475,Frustration,1.72286,1.032916667,Female,22,182
effortratingclickstaskload,2347,28821,17,Low,9.430475,Performance,1.844255,1.023263889,Female,22,182
effortratingclickstaskload,2347,28821,17,Low,9.430475,Temporal,2.55413,13.93631944,Female,22,182
effortratingclickstaskload,2347,28821,17,Low,9.430475,Pleasure,3.20749,10.02770833,Female,22,182
effortratingclickstaskload,2347,28821,18,Medium,25.59863,Effort,2.424405,2.005555556,Female,22,182
effortratingclickstaskload,2347,28821,18,Medium,25.59863,Pleasure,3.70801,7.947083333,Female,22,182
effortratingclickstaskload,2347,28821,18,Medium,25.59863,Mental,2.956055,1.047013889,Female,22,182
effortratingclickstaskload,2347,28821,18,Medium,25.59863,Temporal,1.99354,3.989930556,Female,22,182
effortratingclickstaskload,2347,28821,18,Medium,25.59863,Frustration,2.67432,3.981458333,Female,22,182
effortratingclickstaskload,2347,28821,18,Medium,25.59863,Physical,1.578555,1.056875,Female,22,182
effortratingclickstaskload,2347,28821,18,Medium,25.59863,Performance,1.821,1.087638889,Female,22,182
effortratingclickstaskload,2347,30445,1,Low,13.9748,Effort,5.5233,5.058355438,Female,21,214
effortratingclickstaskload,2347,30445,1,Low,13.9748,Frustration,5.8344,3.055172543,Female,21,214
effortratingclickstaskload,2347,30445,1,Low,13.9748,Physical,5.4864,5.007427185,Female,21,214
effortratingclickstaskload,2347,30445,1,Low,13.9748,Pleasure,2.957,17.04350236,Female,21,214
effortratingclickstaskload,2347,30445,1,Low,13.9748,Mental,1.9672,1.74801061,Female,21,214
effortratingclickstaskload,2347,30445,1,Low,13.9748,Performance,3.0447,1.883819499,Female,21,214
effortratingclickstaskload,2347,30445,1,Low,13.9748,Temporal,4.9675,6.840848806,Female,21,214
effortratingclickstaskload,2347,30445,2,Medium,32.1889,Frustration,1.7941,1.917771883,Female,21,214
effortratingclickstaskload,2347,30445,2,Medium,32.1889,Physical,3.2195,7.129443748,Female,21,214
effortratingclickstaskload,2347,30445,2,Medium,32.1889,Effort,2.002,8.996817753,Female,21,214
effortratingclickstaskload,2347,30445,2,Medium,32.1889,Temporal,2.7734,6.110876109,Female,21,214
effortratingclickstaskload,2347,30445,2,Medium,32.1889,Mental,1.9355,1.900796015,Female,21,214
effortratingclickstaskload,2347,30445,2,Medium,32.1889,Performance,7.7116,4.294429708,Female,21,214
effortratingclickstaskload,2347,30445,2,Medium,32.1889,Pleasure,4.1356,14.19151245,Female,21,214
effortratingclickstaskload,2347,30445,3,High,66.3396,Frustration,4.9619,9.930504756,Female,21,214
effortratingclickstaskload,2347,30445,3,High,66.3396,Effort,2.211,13.20689655,Female,21,214
effortratingclickstaskload,2347,30445,3,High,66.3396,Performance,2.3684,2.834483018,Female,21,214
effortratingclickstaskload,2347,30445,3,High,66.3396,Pleasure,3.3432,8.945888853,Female,21,214
effortratingclickstaskload,2347,30445,3,High,66.3396,Mental,4.3253,2.834483018,Female,21,214
effortratingclickstaskload,2347,30445,3,High,66.3396,Physical,3.8809,12.00159177,Female,21,214
effortratingclickstaskload,2347,30445,3,High,66.3396,Temporal,3.4372,2.155437925,Female,21,214
effortratingclickstaskload,2347,30445,4,Low,13.2093,Frustration,1.3562,1.153846154,Female,21,214
effortratingclickstaskload,2347,30445,4,Low,13.2093,Performance,1.6778,1.442440448,Female,21,214
effortratingclickstaskload,2347,30445,4,Low,13.2093,Physical,1.5745,1.900796015,Female,21,214
effortratingclickstaskload,2347,30445,4,Low,13.2093,Pleasure,2.527,19.725731,Female,21,214
effortratingclickstaskload,2347,30445,4,Low,13.2093,Mental,1.4366,2.070557288,Female,21,214
effortratingclickstaskload,2347,30445,4,Low,13.2093,Effort,5.9685,1.629177589,Female,21,214
effortratingclickstaskload,2347,30445,4,Low,13.2093,Temporal,3.51,9.251459663,Female,21,214
effortratingclickstaskload,2347,30445,5,High,61.6107,Frustration,4.2868,6.059947209,Female,21,214
effortratingclickstaskload,2347,30445,5,High,61.6107,Effort,2.0874,12.40901909,Female,21,214
effortratingclickstaskload,2347,30445,5,High,61.6107,Performance,1.7092,1.968700136,Female,21,214
effortratingclickstaskload,2347,30445,5,High,61.6107,Temporal,1.8052,1.968700136,Female,21,214
effortratingclickstaskload,2347,30445,5,High,61.6107,Pleasure,2.531,8.080106619,Female,21,214
effortratingclickstaskload,2347,30445,5,High,61.6107,Mental,1.65,1.663129973,Female,21,214
effortratingclickstaskload,2347,30445,5,High,61.6107,Physical,1.8223,11.28859494,Female,21,214
effortratingclickstaskload,2347,30445,6,Medium,30.1213,Physical,3.6193,5.635544026,Female,21,214
effortratingclickstaskload,2347,30445,6,Medium,30.1213,Effort,0.7101,3.106100796,Female,21,214
effortratingclickstaskload,2347,30445,6,Medium,30.1213,Pleasure,1.6157,16.21167186,Female,21,214
effortratingclickstaskload,2347,30445,6,Medium,30.1213,Temporal,0.8461,6.433421492,Female,21,214
effortratingclickstaskload,2347,30445,6,Medium,30.1213,Frustration,1.4671,2.88541127,Female,21,214
effortratingclickstaskload,2347,30445,6,Medium,30.1213,Mental,1.7219,1.866843631,Female,21,214
effortratingclickstaskload,2347,30445,6,Medium,30.1213,Performance,1.5314,1.646154105,Female,21,214
effortratingclickstaskload,2347,30445,7,High,57.1496,Pleasure,3.3747,6.75596817,Female,21,214
effortratingclickstaskload,2347,30445,7,High,57.1496,Physical,1.3376,10.64350159,Female,21,214
effortratingclickstaskload,2347,30445,7,High,57.1496,Frustration,0.7514,2.868435402,Female,21,214
effortratingclickstaskload,2347,30445,7,High,57.1496,Effort,1.7295,12.08647241,Female,21,214
effortratingclickstaskload,2347,30445,7,High,57.1496,Mental,1.6194,1.612201721,Female,21,214
effortratingclickstaskload,2347,30445,7,High,57.1496,Temporal,1.8337,3.836074141,Female,21,214
effortratingclickstaskload,2347,30445,7,High,57.1496,Performance,1.3205,2.291246814,Female,21,214
effortratingclickstaskload,2347,30445,8,Medium,30.7254,Pleasure,4.2426,3.428647474,Female,21,214
effortratingclickstaskload,2347,30445,8,Medium,30.7254,Frustration,1.3084,3.717241768,Female,21,214
effortratingclickstaskload,2347,30445,8,Medium,30.7254,Physical,1.8402,7.333156758,Female,21,214
effortratingclickstaskload,2347,30445,8,Medium,30.7254,Temporal,2.0047,7.502918031,Female,21,214
effortratingclickstaskload,2347,30445,8,Medium,30.7254,Effort,1.5835,12.23925781,Female,21,214
effortratingclickstaskload,2347,30445,8,Medium,30.7254,Performance,1.5854,2.477983955,Female,21,214
effortratingclickstaskload,2347,30445,8,Medium,30.7254,Mental,0.9745,2.104509672,Female,21,214
effortratingclickstaskload,2347,30445,9,Low,12.3045,Effort,36.462,3.598408747,Female,21,214
effortratingclickstaskload,2347,30445,9,Low,12.3045,Frustration,1.3566,2.206366177,Female,21,214
effortratingclickstaskload,2347,30445,9,Low,12.3045,Mental,3.3606,1.798938863,Female,21,214
effortratingclickstaskload,2347,30445,9,Low,12.3045,Physical,1.1295,5.567639257,Female,21,214
effortratingclickstaskload,2347,30445,9,Low,12.3045,Performance,1.3888,2.00265252,Female,21,214
effortratingclickstaskload,2347,30445,9,Low,12.3045,Pleasure,2.7263,5.075331954,Female,21,214
effortratingclickstaskload,2347,30445,9,Low,12.3045,Temporal,2.2208,6.29761325,Female,21,214
effortratingclickstaskload,2347,30445,10,Medium,29.89,Physical,3.2692,4.973474801,Female,21,214
effortratingclickstaskload,2347,30445,10,Medium,29.89,Frustration,0.7272,2.189390309,Female,21,214
effortratingclickstaskload,2347,30445,10,Medium,29.89,Performance,1.2366,3.038196675,Female,21,214
effortratingclickstaskload,2347,30445,10,Medium,29.89,Temporal,1.4077,5.941114835,Female,21,214
effortratingclickstaskload,2347,30445,10,Medium,29.89,Mental,1.0584,1.866843631,Female,21,214
effortratingclickstaskload,2347,30445,10,Medium,29.89,Pleasure,2.1855,8.436605034,Female,21,214
effortratingclickstaskload,2347,30445,10,Medium,29.89,Effort,3.7009,6.314589118,Female,21,214
effortratingclickstaskload,2347,30445,11,Low,11.5524,Effort,20.3498,4.498143366,Female,21,214
effortratingclickstaskload,2347,30445,11,Low,11.5524,Performance,6.5681,6.331564987,Female,21,214
effortratingclickstaskload,2347,30445,11,Low,11.5524,Physical,3.0283,6.29761325,Female,21,214
effortratingclickstaskload,2347,30445,11,Low,11.5524,Frustration,1.3284,3.038196675,Female,21,214
effortratingclickstaskload,2347,30445,11,Low,11.5524,Mental,1.5892,2.206366177,Female,21,214
effortratingclickstaskload,2347,30445,11,Low,11.5524,Pleasure,1.2674,9.404243773,Female,21,214
effortratingclickstaskload,2347,30445,11,Low,11.5524,Temporal,1.4033,8.334748529,Female,21,214
effortratingclickstaskload,2347,30445,12,High,62.6387,Physical,4.5214,12.73156576,Female,21,214
effortratingclickstaskload,2347,30445,12,High,62.6387,Performance,1.6283,2.121485541,Female,21,214
effortratingclickstaskload,2347,30445,12,High,62.6387,Frustration,1.5848,9.981432361,Female,21,214
effortratingclickstaskload,2347,30445,12,High,62.6387,Temporal,1.6877,4.124668435,Female,21,214
effortratingclickstaskload,2347,30445,12,High,62.6387,Effort,1.4356,13.597348,Female,21,214
effortratingclickstaskload,2347,30445,12,High,62.6387,Mental,1.7685,1.900796015,Female,21,214
effortratingclickstaskload,2347,30445,12,High,62.6387,Pleasure,2.2617,3.479575726,Female,21,214
effortratingclickstaskload,2347,30445,13,Medium,32.6878,Temporal,4.9608,5.211140843,Female,21,214
effortratingclickstaskload,2347,30445,13,Medium,32.6878,Effort,1.5722,6.789921202,Female,21,214
effortratingclickstaskload,2347,30445,13,Medium,32.6878,Pleasure,2.1057,6.535279292,Female,21,214
effortratingclickstaskload,2347,30445,13,Medium,32.6878,Mental,1.431,1.985676652,Female,21,214
effortratingclickstaskload,2347,30445,13,Medium,32.6878,Frustration,1.3253,2.851458886,Female,21,214
effortratingclickstaskload,2347,30445,13,Medium,32.6878,Performance,1.8594,2.172413793,Female,21,214
effortratingclickstaskload,2347,30445,13,Medium,32.6878,Physical,2.5227,6.976658343,Female,21,214
effortratingclickstaskload,2347,30445,14,High,61.2571,Physical,1.6354,9.828646956,Female,21,214
effortratingclickstaskload,2347,30445,14,High,61.2571,Temporal,1.6269,3.445623342,Female,21,214
effortratingclickstaskload,2347,30445,14,High,61.2571,Pleasure,2.0129,5.041379569,Female,21,214
effortratingclickstaskload,2347,30445,14,High,61.2571,Mental,1.331,1.985676652,Female,21,214
effortratingclickstaskload,2347,30445,14,High,61.2571,Frustration,3.3189,2.681697613,Female,21,214
effortratingclickstaskload,2347,30445,14,High,61.2571,Effort,1.3806,9.879575856,Female,21,214
effortratingclickstaskload,2347,30445,14,High,61.2571,Performance,2.0099,2.579841108,Female,21,214
effortratingclickstaskload,2347,30445,15,Low,17.6752,Temporal,11.999,6.959682475,Female,21,214
effortratingclickstaskload,2347,30445,15,Low,17.6752,Frustration,2.087,2.766578249,Female,21,214
effortratingclickstaskload,2347,30445,15,Low,17.6752,Pleasure,1.6886,6.637135797,Female,21,214
effortratingclickstaskload,2347,30445,15,Low,17.6752,Effort,1.719,2.88541127,Female,21,214
effortratingclickstaskload,2347,30445,15,Low,17.6752,Performance,3.5182,1.917771883,Female,21,214
effortratingclickstaskload,2347,30445,15,Low,17.6752,Physical,1.6109,7.638727568,Female,21,214
effortratingclickstaskload,2347,30445,15,Low,17.6752,Mental,1.4867,2.477983955,Female,21,214
effortratingclickstaskload,2347,30445,16,High,59.0573,Pleasure,6.3437,1.74801061,Female,21,214
effortratingclickstaskload,2347,30445,16,High,59.0573,Mental,2.8549,1.595225853,Female,21,214
effortratingclickstaskload,2347,30445,16,High,59.0573,Physical,1.2736,14.03872705,Female,21,214
effortratingclickstaskload,2347,30445,16,High,59.0573,Frustration,1.497,2.019629036,Female,21,214
effortratingclickstaskload,2347,30445,16,High,59.0573,Effort,1.8622,11.27161778,Female,21,214
effortratingclickstaskload,2347,30445,16,High,59.0573,Performance,1.6148,1.968700136,Female,21,214
effortratingclickstaskload,2347,30445,16,High,59.0573,Temporal,2.0374,2.121485541,Female,21,214
effortratingclickstaskload,2347,30445,17,Low,11.3761,Physical,38.0946,4.650928771,Female,21,214
effortratingclickstaskload,2347,30445,17,Low,11.3761,Pleasure,1.5693,6.025995472,Female,21,214
effortratingclickstaskload,2347,30445,17,Low,11.3761,Performance,1.3203,2.087533156,Female,21,214
effortratingclickstaskload,2347,30445,17,Low,11.3761,Temporal,1.3786,3.971883678,Female,21,214
effortratingclickstaskload,2347,30445,17,Low,11.3761,Mental,1.2565,1.815915378,Female,21,214
effortratingclickstaskload,2347,30445,17,Low,11.3761,Frustration,1.445,3.360742706,Female,21,214
effortratingclickstaskload,2347,30445,17,Low,11.3761,Effort,1.3619,6.059947209,Female,21,214
effortratingclickstaskload,2347,30445,18,Medium,31.8917,Pleasure,2.7017,5.788329431,Female,21,214
effortratingclickstaskload,2347,30445,18,Medium,31.8917,Mental,1.3866,2.51193634,Female,21,214
effortratingclickstaskload,2347,30445,18,Medium,31.8917,Effort,1.5357,7.706631041,Female,21,214
effortratingclickstaskload,2347,30445,18,Medium,31.8917,Temporal,1.0949,4.396286861,Female,21,214
effortratingclickstaskload,2347,30445,18,Medium,31.8917,Frustration,1.2369,3.004244291,Female,21,214
effortratingclickstaskload,2347,30445,18,Medium,31.8917,Physical,1.873,7.282227858,Female,21,214
effortratingclickstaskload,2347,30445,18,Medium,31.8917,Performance,1.1651,2.647745229,Female,21,214
effortratingclickstaskload,2347,30660,1,Low,20.687,Frustration,5.855,11.10094637,Female,21,124
effortratingclickstaskload,2347,30660,1,Low,20.687,Mental,3.227,9.006309148,Female,21,124
effortratingclickstaskload,2347,30660,1,Low,20.687,Pleasure,2.463,8.022082019,Female,21,124
effortratingclickstaskload,2347,30660,1,Low,20.687,Performance,3.963,5.80126183,Female,21,124
effortratingclickstaskload,2347,30660,1,Low,20.687,Physical,2.481,4.312302839,Female,21,124
effortratingclickstaskload,2347,30660,1,Low,20.687,Effort,2.101,2.823343849,Female,21,124
effortratingclickstaskload,2347,30660,1,Low,20.687,Temporal,1.731,8.072555205,Female,21,124
effortratingclickstaskload,2347,30660,2,Medium,27.85,Mental,2.643,4.56466877,Female,21,124
effortratingclickstaskload,2347,30660,2,Medium,27.85,Physical,2.234,4.968454259,Female,21,124
effortratingclickstaskload,2347,30660,2,Medium,27.85,Frustration,2.114,12.69085174,Female,21,124
effortratingclickstaskload,2347,30660,2,Medium,27.85,Performance,3.768,1.132492114,Female,21,124
effortratingclickstaskload,2347,30660,2,Medium,27.85,Effort,2.209,3.025236593,Female,21,124
effortratingclickstaskload,2347,30660,2,Medium,27.85,Pleasure,2.493,6.936908517,Female,21,124
effortratingclickstaskload,2347,30660,2,Medium,27.85,Temporal,2.711,7.921135647,Female,21,124
effortratingclickstaskload,2347,30660,3,High,56.901,Pleasure,1.581,2.293375394,Female,21,124
effortratingclickstaskload,2347,30660,3,High,56.901,Frustration,1.592,12.51419558,Female,21,124
effortratingclickstaskload,2347,30660,3,High,56.901,Mental,1.824,6.305993691,Female,21,124
effortratingclickstaskload,2347,30660,3,High,56.901,Temporal,1.292,6.583596215,Female,21,124
effortratingclickstaskload,2347,30660,3,High,56.901,Effort,1.528,6.255520505,Female,21,124
effortratingclickstaskload,2347,30660,3,High,56.901,Physical,1.095,7.845425868,Female,21,124
effortratingclickstaskload,2347,30660,3,High,56.901,Performance,1.684,1.334384858,Female,21,124
effortratingclickstaskload,2347,30660,4,Low,14.4,Pleasure,1.945,6.38170347,Female,21,124
effortratingclickstaskload,2347,30660,4,Low,14.4,Effort,8.06,5.776025237,Female,21,124
effortratingclickstaskload,2347,30660,4,Low,14.4,Temporal,2.982,7.694006309,Female,21,124
effortratingclickstaskload,2347,30660,4,Low,14.4,Frustration,1.61,11.75709779,Female,21,124
effortratingclickstaskload,2347,30660,4,Low,14.4,Physical,1.244,4.791798107,Female,21,124
effortratingclickstaskload,2347,30660,4,Low,14.4,Mental,1.048,7.164037855,Female,21,124
effortratingclickstaskload,2347,30660,4,Low,14.4,Performance,2.11,1.157728707,Female,21,124
effortratingclickstaskload,2347,30660,5,High,62.616,Frustration,2.268,17.83911672,Female,21,124
effortratingclickstaskload,2347,30660,5,High,62.616,Performance,1.409,1.283911672,Female,21,124
effortratingclickstaskload,2347,30660,5,High,62.616,Effort,3.882,7.492113565,Female,21,124
effortratingclickstaskload,2347,30660,5,High,62.616,Physical,1.732,6.028391167,Female,21,124
effortratingclickstaskload,2347,30660,5,High,62.616,Temporal,7.245,7.694006309,Female,21,124
effortratingclickstaskload,2347,30660,5,High,62.616,Pleasure,5.38,1.738170347,Female,21,124
effortratingclickstaskload,2347,30660,5,High,62.616,Mental,1.945,3.731861199,Female,21,124
effortratingclickstaskload,2347,30660,6,Medium,32.499,Effort,1.48,4.413249211,Female,21,124
effortratingclickstaskload,2347,30660,6,Medium,32.499,Frustration,1.936,12.00946372,Female,21,124
effortratingclickstaskload,2347,30660,6,Medium,32.499,Performance,7.111,1.208201893,Female,21,124
effortratingclickstaskload,2347,30660,6,Medium,32.499,Pleasure,1.775,1.788643533,Female,21,124
effortratingclickstaskload,2347,30660,6,Medium,32.499,Physical,6.408,6.356466877,Female,21,124
effortratingclickstaskload,2347,30660,6,Medium,32.499,Mental,6.91,3.429022082,Female,21,124
effortratingclickstaskload,2347,30660,6,Medium,32.499,Temporal,2.3,8.425867508,Female,21,124
effortratingclickstaskload,2347,30660,7,High,118.703,Mental,2.65,3.605678233,Female,21,124
effortratingclickstaskload,2347,30660,7,High,118.703,Frustration,1.067,10.94952681,Female,21,124
effortratingclickstaskload,2347,30660,7,High,118.703,Physical,1.698,4.993690852,Female,21,124
effortratingclickstaskload,2347,30660,7,High,118.703,Pleasure,2.016,5.220820189,Female,21,124
effortratingclickstaskload,2347,30660,7,High,118.703,Temporal,2.336,6.331230284,Female,21,124
effortratingclickstaskload,2347,30660,7,High,118.703,Effort,4.716,5.422712934,Female,21,124
effortratingclickstaskload,2347,30660,7,High,118.703,Performance,4.516,1.031545741,Female,21,124
effortratingclickstaskload,2347,30660,8,Medium,24.917,Mental,3.179,2.924290221,Female,21,124
effortratingclickstaskload,2347,30660,8,Medium,24.917,Frustration,1.069,12.61514196,Female,21,124
effortratingclickstaskload,2347,30660,8,Medium,24.917,Temporal,1.51,6.735015773,Female,21,124
effortratingclickstaskload,2347,30660,8,Medium,24.917,Performance,2.766,1.233438486,Female,21,124
effortratingclickstaskload,2347,30660,8,Medium,24.917,Effort,3.58,2.545741325,Female,21,124
effortratingclickstaskload,2347,30660,8,Medium,24.917,Physical,3.029,3.933753943,Female,21,124
effortratingclickstaskload,2347,30660,8,Medium,24.917,Pleasure,5.196,4.968454259,Female,21,124
effortratingclickstaskload,2347,30660,9,Low,20.983,Frustration,2.924,4.009463722,Female,21,124
effortratingclickstaskload,2347,30660,9,Low,20.983,Mental,1.395,2.167192429,Female,21,124
effortratingclickstaskload,2347,30660,9,Low,20.983,Effort,4.388,2.798107256,Female,21,124
effortratingclickstaskload,2347,30660,9,Low,20.983,Physical,1.1,3.151419558,Female,21,124
effortratingclickstaskload,2347,30660,9,Low,20.983,Pleasure,43.167,3.025236593,Female,21,124
effortratingclickstaskload,2347,30660,9,Low,20.983,Performance,8.327,1.006309148,Female,21,124
effortratingclickstaskload,2347,30660,9,Low,20.983,Temporal,9.116,2.192429022,Female,21,124
effortratingclickstaskload,2347,30660,10,Medium,27.116,Pleasure,1.965,3.302839117,Female,21,124
effortratingclickstaskload,2347,30660,10,Medium,27.116,Frustration,2.718,6.684542587,Female,21,124
effortratingclickstaskload,2347,30660,10,Medium,27.116,Temporal,1.577,7.138801262,Female,21,124
effortratingclickstaskload,2347,30660,10,Medium,27.116,Performance,2.081,1.107255521,Female,21,124
effortratingclickstaskload,2347,30660,10,Medium,27.116,Effort,6.999,1.712933754,Female,21,124
effortratingclickstaskload,2347,30660,10,Medium,27.116,Physical,5.387,3,Female,21,124
effortratingclickstaskload,2347,30660,10,Medium,27.116,Mental,1.533,2.722397476,Female,21,124
effortratingclickstaskload,2347,30660,11,Low,12.465,Mental,1.021,3.176656151,Female,21,124
effortratingclickstaskload,2347,30660,11,Low,12.465,Physical,0.965,1.76340694,Female,21,124
effortratingclickstaskload,2347,30660,11,Low,12.465,Performance,7.518,1.157728707,Female,21,124
effortratingclickstaskload,2347,30660,11,Low,12.465,Temporal,1.585,2.293375394,Female,21,124
effortratingclickstaskload,2347,30660,11,Low,12.465,Pleasure,1.115,2.899053628,Female,21,124
effortratingclickstaskload,2347,30660,11,Low,12.465,Frustration,1.013,3.706624606,Female,21,124
effortratingclickstaskload,2347,30660,11,Low,12.465,Effort,2.038,3.479495268,Female,21,124
effortratingclickstaskload,2347,30660,12,High,61.101,Mental,2.466,1.940063091,Female,21,124
effortratingclickstaskload,2347,30660,12,High,61.101,Performance,1.95,1.107255521,Female,21,124
effortratingclickstaskload,2347,30660,12,High,61.101,Physical,1.279,5.574132492,Female,21,124
effortratingclickstaskload,2347,30660,12,High,61.101,Frustration,1.002,11.22712934,Female,21,124
effortratingclickstaskload,2347,30660,12,High,61.101,Pleasure,2.319,3.858044164,Female,21,124
effortratingclickstaskload,2347,30660,12,High,61.101,Effort,3.143,6.861198738,Female,21,124
effortratingclickstaskload,2347,30660,12,High,61.101,Temporal,1.344,6.255520505,Female,21,124
effortratingclickstaskload,2347,30660,13,Medium,30.767,Physical,1.427,3.252365931,Female,21,124
effortratingclickstaskload,2347,30660,13,Medium,30.767,Performance,5.147,1.107255521,Female,21,124
effortratingclickstaskload,2347,30660,13,Medium,30.767,Pleasure,5.681,3.378548896,Female,21,124
effortratingclickstaskload,2347,30660,13,Medium,30.767,Temporal,1.008,5.675078864,Female,21,124
effortratingclickstaskload,2347,30660,13,Medium,30.767,Mental,1.205,3.126182965,Female,21,124
effortratingclickstaskload,2347,30660,13,Medium,30.767,Effort,2.521,1.738170347,Female,21,124
effortratingclickstaskload,2347,30660,13,Medium,30.767,Frustration,1.162,10.59621451,Female,21,124
effortratingclickstaskload,2347,30660,14,High,59.517,Mental,1.915,3.605678233,Female,21,124
effortratingclickstaskload,2347,30660,14,High,59.517,Performance,2.495,1.031545741,Female,21,124
effortratingclickstaskload,2347,30660,14,High,59.517,Pleasure,1.477,3.731861199,Female,21,124
effortratingclickstaskload,2347,30660,14,High,59.517,Frustration,2.499,8.52681388,Female,21,124
effortratingclickstaskload,2347,30660,14,High,59.517,Physical,6.317,3.958990536,Female,21,124
effortratingclickstaskload,2347,30660,14,High,59.517,Temporal,20.343,1.561514196,Female,21,124
effortratingclickstaskload,2347,30660,14,High,59.517,Effort,3.421,4.135646688,Female,21,124
effortratingclickstaskload,2347,30660,15,Low,11.582,Performance,6.374,1.056782334,Female,21,124
effortratingclickstaskload,2347,30660,15,Low,11.582,Effort,7.306,4.009463722,Female,21,124
effortratingclickstaskload,2347,30660,15,Low,11.582,Pleasure,2.311,3.832807571,Female,21,124
effortratingclickstaskload,2347,30660,15,Low,11.582,Frustration,10.312,3.757097792,Female,21,124
effortratingclickstaskload,2347,30660,15,Low,11.582,Temporal,3.127,8.022082019,Female,21,124
effortratingclickstaskload,2347,30660,15,Low,11.582,Mental,1.348,1.965299685,Female,21,124
effortratingclickstaskload,2347,30660,15,Low,11.582,Physical,2.867,3.807570978,Female,21,124
effortratingclickstaskload,2347,30660,16,High,75.736,Physical,3.049,4.009463722,Female,21,124
effortratingclickstaskload,2347,30660,16,High,75.736,Effort,1.645,5.498422713,Female,21,124
effortratingclickstaskload,2347,30660,16,High,75.736,Mental,1.177,4.463722397,Female,21,124
effortratingclickstaskload,2347,30660,16,High,75.736,Temporal,53.175,6.205047319,Female,21,124
effortratingclickstaskload,2347,30660,16,High,75.736,Frustration,1.661,11.10094637,Female,21,124
effortratingclickstaskload,2347,30660,16,High,75.736,Performance,16.595,1.132492114,Female,21,124
effortratingclickstaskload,2347,30660,16,High,75.736,Pleasure,4.629,3.378548896,Female,21,124
effortratingclickstaskload,2347,30660,17,Low,10.566,Physical,2.011,1.359621451,Female,21,124
effortratingclickstaskload,2347,30660,17,Low,10.566,Temporal,3.075,10.72239748,Female,21,124
effortratingclickstaskload,2347,30660,17,Low,10.566,Effort,2.118,2.974763407,Female,21,124
effortratingclickstaskload,2347,30660,17,Low,10.566,Performance,2.617,1.082018927,Female,21,124
effortratingclickstaskload,2347,30660,17,Low,10.566,Frustration,1.615,2.899053628,Female,21,124
effortratingclickstaskload,2347,30660,17,Low,10.566,Pleasure,4.8,3.681388013,Female,21,124
effortratingclickstaskload,2347,30660,17,Low,10.566,Mental,7.305,3.731861199,Female,21,124
effortratingclickstaskload,2347,30660,18,Medium,27.717,Effort,1.51,3.782334385,Female,21,124
effortratingclickstaskload,2347,30660,18,Medium,27.717,Frustration,1.547,5.119873817,Female,21,124
effortratingclickstaskload,2347,30660,18,Medium,27.717,Mental,6.198,4.690851735,Female,21,124
effortratingclickstaskload,2347,30660,18,Medium,27.717,Temporal,5.078,7.189274448,Female,21,124
effortratingclickstaskload,2347,30660,18,Medium,27.717,Performance,1.867,1.283911672,Female,21,124
effortratingclickstaskload,2347,30660,18,Medium,27.717,Physical,12.999,2.974763407,Female,21,124
effortratingclickstaskload,2347,30660,18,Medium,27.717,Pleasure,1.61,2.015772871,Female,21,124
effortratingclickstaskload,2347,31295,1,Low,11.5595,Frustration,5.5883,4.938588325,Female,22,250
effortratingclickstaskload,2347,31295,1,Low,11.5595,Mental,3.0276,1.142634277,Female,22,250
effortratingclickstaskload,2347,31295,1,Low,11.5595,Performance,4.1699,3.020157335,Female,22,250
effortratingclickstaskload,2347,31295,1,Low,11.5595,Physical,2.5433,1.982114258,Female,22,250
effortratingclickstaskload,2347,31295,1,Low,11.5595,Effort,4.2213,3.076803385,Female,22,250
effortratingclickstaskload,2347,31295,1,Low,11.5595,Temporal,3.903,17.0571224,Female,22,250
effortratingclickstaskload,2347,31295,1,Low,11.5595,Pleasure,3.2929,13.94337782,Female,22,250
effortratingclickstaskload,2347,31295,2,Medium,27.0554,Effort,4.5375,9.005979818,Female,22,250
effortratingclickstaskload,2347,31295,2,Medium,27.0554,Physical,2.9277,5.986341146,Female,22,250
effortratingclickstaskload,2347,31295,2,Medium,27.0554,Frustration,4.26,11.87594401,Female,22,250
effortratingclickstaskload,2347,31295,2,Medium,27.0554,Temporal,3.8366,17.07715278,Female,22,250
effortratingclickstaskload,2347,31295,2,Medium,27.0554,Pleasure,3.1871,4.091366102,Female,22,250
effortratingclickstaskload,2347,31295,2,Medium,27.0554,Mental,4.1705,2.043740506,Female,22,250
effortratingclickstaskload,2347,31295,2,Medium,27.0554,Performance,4.6196,6.014849175,Female,22,250
effortratingclickstaskload,2347,31295,3,High,60.271,Temporal,4.5195,3.987909071,Female,22,250
effortratingclickstaskload,2347,31295,3,High,60.271,Effort,3.3509,12.900523,Female,22,250
effortratingclickstaskload,2347,31295,3,High,60.271,Mental,2.4098,5.098613824,Female,22,250
effortratingclickstaskload,2347,31295,3,High,60.271,Pleasure,3.0432,1.908379991,Female,22,250
effortratingclickstaskload,2347,31295,3,High,60.271,Physical,3.5112,9.8453125,Female,22,250
effortratingclickstaskload,2347,31295,3,High,60.271,Performance,4.3696,5.933811849,Female,22,250
effortratingclickstaskload,2347,31295,3,High,60.271,Frustration,4.9205,19.06073568,Female,22,250
effortratingclickstaskload,2347,31295,4,Low,10.5538,Pleasure,2.3267,11.98634549,Female,22,250
effortratingclickstaskload,2347,31295,4,Low,10.5538,Effort,2.5109,2.175115289,Female,22,250
effortratingclickstaskload,2347,31295,4,Low,10.5538,Frustration,4.5435,7.127927517,Female,22,250
effortratingclickstaskload,2347,31295,4,Low,10.5538,Mental,2.9026,3.103694119,Female,22,250
effortratingclickstaskload,2347,31295,4,Low,10.5538,Performance,2.3605,2.061296658,Female,22,250
effortratingclickstaskload,2347,31295,4,Low,10.5538,Physical,3.1696,2.946133898,Female,22,250
effortratingclickstaskload,2347,31295,4,Low,10.5538,Temporal,2.7612,4.039565972,Female,22,250
effortratingclickstaskload,2347,31295,5,High,56.3202,Pleasure,2.8775,1.168548448,Female,22,250
effortratingclickstaskload,2347,31295,5,High,56.3202,Frustration,3.2015,17.85030382,Female,22,250
effortratingclickstaskload,2347,31295,5,High,56.3202,Mental,4.278,3.157723524,Female,22,250
effortratingclickstaskload,2347,31295,5,High,56.3202,Effort,4.637,12.95156576,Female,22,250
effortratingclickstaskload,2347,31295,5,High,56.3202,Temporal,3.102,4.086984592,Female,22,250
effortratingclickstaskload,2347,31295,5,High,56.3202,Performance,4.5715,2.957865668,Female,22,250
effortratingclickstaskload,2347,31295,5,High,56.3202,Physical,2.7439,10.99976237,Female,22,250
effortratingclickstaskload,2347,31295,6,Medium,24.3535,Mental,7.237,1.081366374,Female,22,250
effortratingclickstaskload,2347,31295,6,Medium,24.3535,Pleasure,2.8213,3.161759983,Female,22,250
effortratingclickstaskload,2347,31295,6,Medium,24.3535,Physical,4.1444,7.031533203,Female,22,250
effortratingclickstaskload,2347,31295,6,Medium,24.3535,Temporal,3.0942,3.896880425,Female,22,250
effortratingclickstaskload,2347,31295,6,Medium,24.3535,Performance,7.4263,2.459239095,Female,22,250
effortratingclickstaskload,2347,31295,6,Medium,24.3535,Frustration,6.5876,15.413536240000001,Female,22,250
effortratingclickstaskload,2347,31295,6,Medium,24.3535,Effort,2.9543,5.485899523,Female,22,250
effortratingclickstaskload,2347,31295,7,High,58.9212,Physical,5.7294,11.54281684,Female,22,250
effortratingclickstaskload,2347,31295,7,High,58.9212,Performance,2.978,3.340261502,Female,22,250
effortratingclickstaskload,2347,31295,7,High,58.9212,Effort,4.2114,11.57565104,Female,22,250
effortratingclickstaskload,2347,31295,7,High,58.9212,Pleasure,3.17,1.108854167,Female,22,250
effortratingclickstaskload,2347,31295,7,High,58.9212,Mental,2.9455,3.465758464,Female,22,250
effortratingclickstaskload,2347,31295,7,High,58.9212,Temporal,6.1204,5.576068793,Female,22,250
effortratingclickstaskload,2347,31295,7,High,58.9212,Frustration,2.6112,18.45196832,Female,22,250
effortratingclickstaskload,2347,31295,8,Medium,26.5879,Effort,4.0873,4.911223958,Female,22,250
effortratingclickstaskload,2347,31295,8,Medium,26.5879,Frustration,3.8984,18.90488064,Female,22,250
effortratingclickstaskload,2347,31295,8,Medium,26.5879,Pleasure,2.8374,1.857091743,Female,22,250
effortratingclickstaskload,2347,31295,8,Medium,26.5879,Temporal,2.3385,6.415748698,Female,22,250
effortratingclickstaskload,2347,31295,8,Medium,26.5879,Mental,3.5291,4.534558377,Female,22,250
effortratingclickstaskload,2347,31295,8,Medium,26.5879,Physical,2.4442,11.35067817,Female,22,250
effortratingclickstaskload,2347,31295,8,Medium,26.5879,Performance,2.8945,2.422087131,Female,22,250
effortratingclickstaskload,2347,31295,9,Low,9.7046,Temporal,3.2605,13.50596788,Female,22,250
effortratingclickstaskload,2347,31295,9,Low,9.7046,Pleasure,3.2544,8.955889757,Female,22,250
effortratingclickstaskload,2347,31295,9,Low,9.7046,Mental,4.9102,2.510467665,Female,22,250
effortratingclickstaskload,2347,31295,9,Low,9.7046,Physical,3.2531,5.348026259,Female,22,250
effortratingclickstaskload,2347,31295,9,Low,9.7046,Frustration,3.9215,9.451463759,Female,22,250
effortratingclickstaskload,2347,31295,9,Low,9.7046,Performance,3.1391,1.928252767,Female,22,250
effortratingclickstaskload,2347,31295,9,Low,9.7046,Effort,4.8267,8.454397786,Female,22,250
effortratingclickstaskload,2347,31295,10,Medium,25.5204,Effort,1.9797,7.6814898,Female,22,250
effortratingclickstaskload,2347,31295,10,Medium,25.5204,Temporal,2.5701,8.710460069,Female,22,250
effortratingclickstaskload,2347,31295,10,Medium,25.5204,Physical,4.7437,10.66240343,Female,22,250
effortratingclickstaskload,2347,31295,10,Medium,25.5204,Pleasure,4.9611,4.553827582,Female,22,250
effortratingclickstaskload,2347,31295,10,Medium,25.5204,Performance,3.7537,2.923142361,Female,22,250
effortratingclickstaskload,2347,31295,10,Medium,25.5204,Frustration,2.3938,13.39751953,Female,22,250
effortratingclickstaskload,2347,31295,10,Medium,25.5204,Mental,2.5113,3.611402995,Female,22,250
effortratingclickstaskload,2347,31295,11,Low,9.154,Physical,1.8953,4.323146701,Female,22,250
effortratingclickstaskload,2347,31295,11,Low,9.154,Mental,1.8948,3.312159288,Female,22,250
effortratingclickstaskload,2347,31295,11,Low,9.154,Performance,2.2443,1.727464735,Female,22,250
effortratingclickstaskload,2347,31295,11,Low,9.154,Temporal,2.4281,13.44726345,Female,22,250
effortratingclickstaskload,2347,31295,11,Low,9.154,Effort,2.7531,7.286785482,Female,22,250
effortratingclickstaskload,2347,31295,11,Low,9.154,Pleasure,2.2534,15.70325087,Female,22,250
effortratingclickstaskload,2347,31295,11,Low,9.154,Frustration,2.655,2.916936849,Female,22,250
effortratingclickstaskload,2347,31295,12,High,52.2382,Physical,2.4611,11.78854818,Female,22,250
effortratingclickstaskload,2347,31295,12,High,52.2382,Pleasure,2.8107,1.953981391,Female,22,250
effortratingclickstaskload,2347,31295,12,High,52.2382,Frustration,2.8949,18.9980013,Female,22,250
effortratingclickstaskload,2347,31295,12,High,52.2382,Temporal,2.2618,3.01734592,Female,22,250
effortratingclickstaskload,2347,31295,12,High,52.2382,Performance,2.4623,2.834994575,Female,22,250
effortratingclickstaskload,2347,31295,12,High,52.2382,Mental,1.9106,4.957137044,Female,22,250
effortratingclickstaskload,2347,31295,12,High,52.2382,Effort,3.5443,11.04195204,Female,22,250
effortratingclickstaskload,2347,31295,13,Medium,23.8207,Effort,3.8372,5.98840115,Female,22,250
effortratingclickstaskload,2347,31295,13,Medium,23.8207,Mental,3.6694,3.485599501,Female,22,250
effortratingclickstaskload,2347,31295,13,Medium,23.8207,Performance,2.7113,2.743746474,Female,22,250
effortratingclickstaskload,2347,31295,13,Medium,23.8207,Physical,2.3606,9.135476345,Female,22,250
effortratingclickstaskload,2347,31295,13,Medium,23.8207,Temporal,2.1115,7.562707248,Female,22,250
effortratingclickstaskload,2347,31295,13,Medium,23.8207,Pleasure,2.6278,3.568775499,Female,22,250
effortratingclickstaskload,2347,31295,13,Medium,23.8207,Frustration,2.8446,14.54148763,Female,22,250
effortratingclickstaskload,2347,31295,14,High,57.1703,Temporal,2.1783,4.096248915,Female,22,250
effortratingclickstaskload,2347,31295,14,High,57.1703,Mental,2.3594,10.50767795,Female,22,250
effortratingclickstaskload,2347,31295,14,High,57.1703,Physical,2.5118,11.4476747,Female,22,250
effortratingclickstaskload,2347,31295,14,High,57.1703,Effort,3.4033,12.71473741,Female,22,250
effortratingclickstaskload,2347,31295,14,High,57.1703,Performance,2.1933,4.003448351,Female,22,250
effortratingclickstaskload,2347,31295,14,High,57.1703,Pleasure,2.2603,1.190715332,Female,22,250
effortratingclickstaskload,2347,31295,14,High,57.1703,Frustration,2.544,19.35254774,Female,22,250
effortratingclickstaskload,2347,31295,15,Low,9.9377,Mental,3.344,3.590225694,Female,22,250
effortratingclickstaskload,2347,31295,15,Low,9.9377,Effort,2.1462,6.969893663,Female,22,250
effortratingclickstaskload,2347,31295,15,Low,9.9377,Performance,2.8441,2.465972765,Female,22,250
effortratingclickstaskload,2347,31295,15,Low,9.9377,Physical,1.8601,5.271127387,Female,22,250
effortratingclickstaskload,2347,31295,15,Low,9.9377,Temporal,2.8377,13.98583333,Female,22,250
effortratingclickstaskload,2347,31295,15,Low,9.9377,Pleasure,3.694,7.57218099,Female,22,250
effortratingclickstaskload,2347,31295,15,Low,9.9377,Frustration,3.9115,10.53484918,Female,22,250
effortratingclickstaskload,2347,31295,16,High,51.9715,Physical,2.6103,10.50690538,Female,22,250
effortratingclickstaskload,2347,31295,16,High,51.9715,Frustration,7.1548,16.9861849,Female,22,250
effortratingclickstaskload,2347,31295,16,High,51.9715,Effort,6.6876,9.494730903,Female,22,250
effortratingclickstaskload,2347,31295,16,High,51.9715,Mental,1.7614,5.617015516,Female,22,250
effortratingclickstaskload,2347,31295,16,High,51.9715,Temporal,1.9773,6.199895833,Female,22,250
effortratingclickstaskload,2347,31295,16,High,51.9715,Performance,2.6037,3.367805447,Female,22,250
effortratingclickstaskload,2347,31295,16,High,51.9715,Pleasure,2.5606,2.976101345,Female,22,250
effortratingclickstaskload,2347,31295,17,Low,9.5714,Effort,8.1555,3.994334852,Female,22,250
effortratingclickstaskload,2347,31295,17,Low,9.5714,Physical,3.1951,2.987058377,Female,22,250
effortratingclickstaskload,2347,31295,17,Low,9.5714,Temporal,4.9038,11.85467014,Female,22,250
effortratingclickstaskload,2347,31295,17,Low,9.5714,Performance,2.4949,1.933885362,Female,22,250
effortratingclickstaskload,2347,31295,17,Low,9.5714,Frustration,3.2362,7.36562934,Female,22,250
effortratingclickstaskload,2347,31295,17,Low,9.5714,Mental,3.1208,2.967920464,Female,22,250
effortratingclickstaskload,2347,31295,17,Low,9.5714,Pleasure,4.0622,11.44052951,Female,22,250
effortratingclickstaskload,2347,31295,18,Medium,26.0212,Mental,4.7213,5.410231662,Female,22,250
effortratingclickstaskload,2347,31295,18,Medium,26.0212,Performance,2.3776,2.501615397,Female,22,250
effortratingclickstaskload,2347,31295,18,Medium,26.0212,Pleasure,2.1616,2.943702257,Female,22,250
effortratingclickstaskload,2347,31295,18,Medium,26.0212,Effort,2.3944,6.094095052,Female,22,250
effortratingclickstaskload,2347,31295,18,Medium,26.0212,Physical,2.5787,7.686903212,Female,22,250
effortratingclickstaskload,2347,31295,18,Medium,26.0212,Frustration,3.078,17.73133464,Female,22,250
effortratingclickstaskload,2347,31295,18,Medium,26.0212,Temporal,2.1612,4.82445204,Female,22,250
effortratingclickstaskload,2347,31502,1,Low,12.9587,Physical,3.5732,4.962986111,Female,20,234
effortratingclickstaskload,2347,31502,1,Low,12.9587,Pleasure,2.055,17.06638889,Female,20,234
effortratingclickstaskload,2347,31502,1,Low,12.9587,Frustration,3.0029,2.062430556,Female,20,234
effortratingclickstaskload,2347,31502,1,Low,12.9587,Effort,5.1015,2.040208333,Female,20,234
effortratingclickstaskload,2347,31502,1,Low,12.9587,Performance,4.3206,1.076875,Female,20,234
effortratingclickstaskload,2347,31502,1,Low,12.9587,Mental,3.7702,1,Female,20,234
effortratingclickstaskload,2347,31502,1,Low,12.9587,Temporal,3.9518,1.895486111,Female,20,234
effortratingclickstaskload,2347,31502,1,Low,9.4751,Pleasure,3.1232,4.647708333,Female,20,234
effortratingclickstaskload,2347,31502,1,Low,9.4751,Frustration,1.6866,1.180625,Female,20,234
effortratingclickstaskload,2347,31502,1,Low,9.4751,Effort,7.0648,1.767569444,Female,20,234
effortratingclickstaskload,2347,31502,1,Low,9.4751,Performance,1.872,1.770138889,Female,20,234
effortratingclickstaskload,2347,31502,1,Low,9.4751,Mental,1.2212,1.413472222,Female,20,234
effortratingclickstaskload,2347,31502,1,Low,9.4751,Temporal,1.1873,1.39125,Female,20,234
effortratingclickstaskload,2347,31502,1,Low,9.4751,Physical,1.4521,1.906666667,Female,20,234
effortratingclickstaskload,2347,31502,2,Medium,29.485,Frustration,4.4008,1,Female,20,234
effortratingclickstaskload,2347,31502,2,Medium,29.485,Mental,2.5872,1,Female,20,234
effortratingclickstaskload,2347,31502,2,Medium,29.485,Physical,2.8165,2.029027778,Female,20,234
effortratingclickstaskload,2347,31502,2,Medium,29.485,Pleasure,2.0533,20.89715278,Female,20,234
effortratingclickstaskload,2347,31502,2,Medium,29.485,Effort,3.1368,2.845416667,Female,20,234
effortratingclickstaskload,2347,31502,2,Medium,29.485,Temporal,4.1835,2.030347222,Female,20,234
effortratingclickstaskload,2347,31502,2,Medium,29.485,Performance,2.8661,1.035902778,Female,20,234
effortratingclickstaskload,2347,31502,2,Medium,31.4512,Temporal,3.8988,1.278194444,Female,20,234
effortratingclickstaskload,2347,31502,2,Medium,31.4512,Frustration,1.2865,1.123888889,Female,20,234
effortratingclickstaskload,2347,31502,2,Medium,31.4512,Physical,1.6709,3.462152778,Female,20,234
effortratingclickstaskload,2347,31502,2,Medium,31.4512,Performance,1.3039,1.929097222,Female,20,234
effortratingclickstaskload,2347,31502,2,Medium,31.4512,Effort,1.8884,2.175763889,Female,20,234
effortratingclickstaskload,2347,31502,2,Medium,31.4512,Pleasure,2.136,10.80236111,Female,20,234
effortratingclickstaskload,2347,31502,2,Medium,31.4512,Mental,1.2048,1.87,Female,20,234
effortratingclickstaskload,2347,31502,3,High,60.7842,Mental,2.0055,3.112152778,Female,20,234
effortratingclickstaskload,2347,31502,3,High,60.7842,Performance,2.0211,1.101736111,Female,20,234
effortratingclickstaskload,2347,31502,3,High,60.7842,Effort,2.3205,3.043888889,Female,20,234
effortratingclickstaskload,2347,31502,3,High,60.7842,Temporal,2.0871,2.953055556,Female,20,234
effortratingclickstaskload,2347,31502,3,High,60.7842,Physical,1.8867,4.112777778,Female,20,234
effortratingclickstaskload,2347,31502,3,High,60.7842,Pleasure,2.8504,20.05729167,Female,20,234
effortratingclickstaskload,2347,31502,3,High,60.7842,Frustration,4.6525,1.147638889,Female,20,234
effortratingclickstaskload,2347,31502,3,High,66.2025,Frustration,2.1853,2.003888889,Female,20,234
effortratingclickstaskload,2347,31502,3,High,66.2025,Performance,1.2033,1.986111111,Female,20,234
effortratingclickstaskload,2347,31502,3,High,66.2025,Effort,2.4029,8.928958333,Female,20,234
effortratingclickstaskload,2347,31502,3,High,66.2025,Mental,3.3538,2.103611111,Female,20,234
effortratingclickstaskload,2347,31502,3,High,66.2025,Temporal,1.052,2.293680556,Female,20,234
effortratingclickstaskload,2347,31502,3,High,66.2025,Pleasure,1.8535,10.03395833,Female,20,234
effortratingclickstaskload,2347,31502,3,High,66.2025,Physical,2.2005,7.287152778,Female,20,234
effortratingclickstaskload,2347,31502,4,Low,14.9346,Temporal,3.7686,1.010972222,Female,20,234
effortratingclickstaskload,2347,31502,4,Low,14.9346,Performance,1.6358,1.129652778,Female,20,234
effortratingclickstaskload,2347,31502,4,Low,14.9346,Effort,2.6486,1.032430556,Female,20,234
effortratingclickstaskload,2347,31502,4,Low,14.9346,Mental,2.6363,1.111458333,Female,20,234
effortratingclickstaskload,2347,31502,4,Low,14.9346,Physical,2.2185,1.200833333,Female,20,234
effortratingclickstaskload,2347,31502,4,Low,14.9346,Pleasure,4.2176,15.96840278,Female,20,234
effortratingclickstaskload,2347,31502,4,Low,14.9346,Frustration,1.9034,1.145208333,Female,20,234
effortratingclickstaskload,2347,31502,4,Low,26.5668,Pleasure,2.4178,11.24256944,Female,20,234
effortratingclickstaskload,2347,31502,4,Low,26.5668,Physical,1.9036,4.07375,Female,20,234
effortratingclickstaskload,2347,31502,4,Low,26.5668,Frustration,1.4365,1.725138889,Female,20,234
effortratingclickstaskload,2347,31502,4,Low,26.5668,Temporal,2.5847,2.034305556,Female,20,234
effortratingclickstaskload,2347,31502,4,Low,26.5668,Mental,1.7541,1.914236111,Female,20,234
effortratingclickstaskload,2347,31502,4,Low,26.5668,Effort,3.1845,3.246666667,Female,20,234
effortratingclickstaskload,2347,31502,4,Low,26.5668,Performance,2.1682,1.983055556,Female,20,234
effortratingclickstaskload,2347,31502,5,High,62.735,Frustration,1.5533,1.093055556,Female,20,234
effortratingclickstaskload,2347,31502,5,High,62.735,Performance,2.5873,1,Female,20,234
effortratingclickstaskload,2347,31502,5,High,62.735,Pleasure,5.487,8.546180556,Female,20,234
effortratingclickstaskload,2347,31502,5,High,62.735,Physical,1.6854,4.339097222,Female,20,234
effortratingclickstaskload,2347,31502,5,High,62.735,Mental,2.1205,1.780833333,Female,20,234
effortratingclickstaskload,2347,31502,5,High,62.735,Temporal,3.9684,2.147152778,Female,20,234
effortratingclickstaskload,2347,31502,5,High,62.735,Effort,3.2694,4.634583333,Female,20,234
effortratingclickstaskload,2347,31502,5,High,64.1692,Temporal,52.1687,2.095277778,Female,20,234
effortratingclickstaskload,2347,31502,5,High,64.1692,Performance,4.2333,3.045416667,Female,20,234
effortratingclickstaskload,2347,31502,5,High,64.1692,Effort,13.8049,6.024305556,Female,20,234
effortratingclickstaskload,2347,31502,5,High,64.1692,Mental,3.7364,2.976597222,Female,20,234
effortratingclickstaskload,2347,31502,5,High,64.1692,Physical,7.5367,7.444444444,Female,20,234
effortratingclickstaskload,2347,31502,5,High,64.1692,Frustration,6.7906,2.031388889,Female,20,234
effortratingclickstaskload,2347,31502,5,High,64.1692,Pleasure,5.0712,12.42479167,Female,20,234
effortratingclickstaskload,2347,31502,6,Medium,26.5504,Temporal,1.6192,1.969097222,Female,20,234
effortratingclickstaskload,2347,31502,6,Medium,26.5504,Frustration,4.1853,1.263541667,Female,20,234
effortratingclickstaskload,2347,31502,6,Medium,26.5504,Physical,2.453,3.049375,Female,20,234
effortratingclickstaskload,2347,31502,6,Medium,26.5504,Effort,4.186,3.067777778,Female,20,234
effortratingclickstaskload,2347,31502,6,Medium,26.5504,Performance,2.6853,1.104305556,Female,20,234
effortratingclickstaskload,2347,31502,6,Medium,26.5504,Mental,2.4524,2.321875,Female,20,234
effortratingclickstaskload,2347,31502,6,Medium,26.5504,Pleasure,1.9369,14.79423611,Female,20,234
effortratingclickstaskload,2347,31502,6,Medium,29.4344,Performance,21.4496,1.851527778,Female,20,234
effortratingclickstaskload,2347,31502,6,Medium,29.4344,Physical,6.3193,9.259583333,Female,20,234
effortratingclickstaskload,2347,31502,6,Medium,29.4344,Pleasure,4.3833,13.98555556,Female,20,234
effortratingclickstaskload,2347,31502,6,Medium,29.4344,Frustration,2.8536,1.968958333,Female,20,234
effortratingclickstaskload,2347,31502,6,Medium,29.4344,Mental,7.9557,1.850625,Female,20,234
effortratingclickstaskload,2347,31502,6,Medium,29.4344,Effort,5.4053,3.362638889,Female,20,234
effortratingclickstaskload,2347,31502,6,Medium,29.4344,Temporal,9.2875,10.46506944,Female,20,234
effortratingclickstaskload,2347,31502,7,High,55.8015,Performance,1.786,1.066805556,Female,20,234
effortratingclickstaskload,2347,31502,7,High,55.8015,Frustration,2.0383,2.456180556,Female,20,234
effortratingclickstaskload,2347,31502,7,High,55.8015,Pleasure,1.503,12.47847222,Female,20,234
effortratingclickstaskload,2347,31502,7,High,55.8015,Temporal,1.3191,1.355902778,Female,20,234
effortratingclickstaskload,2347,31502,7,High,55.8015,Effort,8.2699,5.959236111,Female,20,234
effortratingclickstaskload,2347,31502,7,High,55.8015,Mental,2.6865,1.852777778,Female,20,234
effortratingclickstaskload,2347,31502,7,High,55.8015,Physical,1.3362,5.224722222,Female,20,234
effortratingclickstaskload,2347,31502,7,High,60.5033,Effort,4.0659,3.590416667,Female,20,234
effortratingclickstaskload,2347,31502,7,High,60.5033,Physical,3.6158,4.947916667,Female,20,234
effortratingclickstaskload,2347,31502,7,High,60.5033,Temporal,2.8499,6.88875,Female,20,234
effortratingclickstaskload,2347,31502,7,High,60.5033,Frustration,2.4038,1.83625,Female,20,234
effortratingclickstaskload,2347,31502,7,High,60.5033,Pleasure,6.8827,8.532847222,Female,20,234
effortratingclickstaskload,2347,31502,7,High,60.5033,Performance,8.0514,1.948888889,Female,20,234
effortratingclickstaskload,2347,31502,7,High,60.5033,Mental,2.9845,4.457430556,Female,20,234
effortratingclickstaskload,2347,31502,8,Medium,29.2853,Performance,1.6866,1.052986111,Female,20,234
effortratingclickstaskload,2347,31502,8,Medium,29.2853,Physical,1.5054,3.457847222,Female,20,234
effortratingclickstaskload,2347,31502,8,Medium,29.2853,Temporal,1.7022,1.007569444,Female,20,234
effortratingclickstaskload,2347,31502,8,Medium,29.2853,Mental,2.5542,1.711875,Female,20,234
effortratingclickstaskload,2347,31502,8,Medium,29.2853,Frustration,1.6522,1.144236111,Female,20,234
effortratingclickstaskload,2347,31502,8,Medium,29.2853,Pleasure,2.1049,10.79770833,Female,20,234
effortratingclickstaskload,2347,31502,8,Medium,29.2853,Effort,2.1881,4.23875,Female,20,234
effortratingclickstaskload,2347,31502,8,Medium,26.5518,Temporal,5.42,11.59548611,Female,20,234
effortratingclickstaskload,2347,31502,8,Medium,26.5518,Mental,2.0537,2.889722222,Female,20,234
effortratingclickstaskload,2347,31502,8,Medium,26.5518,Performance,2.8035,1.854305556,Female,20,234
effortratingclickstaskload,2347,31502,8,Medium,26.5518,Pleasure,2.1028,10.88798611,Female,20,234
effortratingclickstaskload,2347,31502,8,Medium,26.5518,Physical,3.6334,4.013888889,Female,20,234
effortratingclickstaskload,2347,31502,8,Medium,26.5518,Frustration,2.1217,2.678958333,Female,20,234
effortratingclickstaskload,2347,31502,8,Medium,26.5518,Effort,5.9015,5.000208333,Female,20,234
effortratingclickstaskload,2347,31502,9,Low,14.2183,Frustration,1.5701,1.031527778,Female,20,234
effortratingclickstaskload,2347,31502,9,Low,14.2183,Physical,1.9364,1.021458333,Female,20,234
effortratingclickstaskload,2347,31502,9,Low,14.2183,Pleasure,3.3515,17.17680556,Female,20,234
effortratingclickstaskload,2347,31502,9,Low,14.2183,Mental,1.2543,1.693333333,Female,20,234
effortratingclickstaskload,2347,31502,9,Low,14.2183,Effort,2.9028,2.258680556,Female,20,234
effortratingclickstaskload,2347,31502,9,Low,14.2183,Temporal,2.8033,1.878055556,Female,20,234
effortratingclickstaskload,2347,31502,9,Low,14.2183,Performance,3.0335,1.149861111,Female,20,234
effortratingclickstaskload,2347,31502,9,Low,9.9506,Mental,4.6656,3.022430556,Female,20,234
effortratingclickstaskload,2347,31502,9,Low,9.9506,Physical,3.1045,4.04375,Female,20,234
effortratingclickstaskload,2347,31502,9,Low,9.9506,Frustration,1.6366,2.875763889,Female,20,234
effortratingclickstaskload,2347,31502,9,Low,9.9506,Temporal,6.0023,12.49875,Female,20,234
effortratingclickstaskload,2347,31502,9,Low,9.9506,Performance,5.9359,3.007222222,Female,20,234
effortratingclickstaskload,2347,31502,9,Low,9.9506,Effort,7.6842,5.079027778,Female,20,234
effortratingclickstaskload,2347,31502,9,Low,9.9506,Pleasure,3.485,9.494236111,Female,20,234
effortratingclickstaskload,2347,31874,1,Low,22.2,Frustration,14.9,3.981481481,Male,20,163
effortratingclickstaskload,2347,31874,1,Low,22.2,Temporal,9.2,3.925925926,Male,20,163
effortratingclickstaskload,2347,31874,1,Low,22.2,Pleasure,8.2,4.962962963,Male,20,163
effortratingclickstaskload,2347,31874,1,Low,22.2,Performance,3.4,1.037037037,Male,20,163
effortratingclickstaskload,2347,31874,1,Low,22.2,Effort,3.9,1.074074074,Male,20,163
effortratingclickstaskload,2347,31874,1,Low,22.2,Mental,5.6,1.055555556,Male,20,163
effortratingclickstaskload,2347,31874,1,Low,22.2,Physical,1.6,1.092592593,Male,20,163
effortratingclickstaskload,2347,31874,2,Medium,70.6,Mental,3.7,3.851851852,Male,20,163
effortratingclickstaskload,2347,31874,2,Medium,70.6,Temporal,2.3,3.111111111,Male,20,163
effortratingclickstaskload,2347,31874,2,Medium,70.6,Physical,4.4,1,Male,20,163
effortratingclickstaskload,2347,31874,2,Medium,70.6,Effort,3.7,2.981481481,Male,20,163
effortratingclickstaskload,2347,31874,2,Medium,70.6,Frustration,3.9,3.944444444,Male,20,163
effortratingclickstaskload,2347,31874,2,Medium,70.6,Performance,2.9,1.111111111,Male,20,163
effortratingclickstaskload,2347,31874,2,Medium,70.6,Pleasure,5.7,4.055555556,Male,20,163
effortratingclickstaskload,2347,31874,3,High,130.4,Effort,3.6,6.055555556,Male,20,163
effortratingclickstaskload,2347,31874,3,High,130.4,Mental,3.7,4.981481481,Male,20,163
effortratingclickstaskload,2347,31874,3,High,130.4,Temporal,6.5,1.962962963,Male,20,163
effortratingclickstaskload,2347,31874,3,High,130.4,Physical,1.9,1.018518519,Male,20,163
effortratingclickstaskload,2347,31874,3,High,130.4,Frustration,2.3,5,Male,20,163
effortratingclickstaskload,2347,31874,3,High,130.4,Pleasure,9.6,3.185185185,Male,20,163
effortratingclickstaskload,2347,31874,3,High,130.4,Performance,6.4,1.092592593,Male,20,163
effortratingclickstaskload,2347,31874,4,Low,21,Physical,2.3,2.037037037,Male,20,163
effortratingclickstaskload,2347,31874,4,Low,21,Effort,3.1,2.074074074,Male,20,163
effortratingclickstaskload,2347,31874,4,Low,21,Frustration,2.7,2.018518519,Male,20,163
effortratingclickstaskload,2347,31874,4,Low,21,Performance,7.3,1,Male,20,163
effortratingclickstaskload,2347,31874,4,Low,21,Mental,2.1,1,Male,20,163
effortratingclickstaskload,2347,31874,4,Low,21,Pleasure,5.3,6.018518519,Male,20,163
effortratingclickstaskload,2347,31874,4,Low,21,Temporal,3.9,6.907407407,Male,20,163
effortratingclickstaskload,2347,31874,5,High,130.8,Effort,3,6.111111111,Male,20,163
effortratingclickstaskload,2347,31874,5,High,130.8,Frustration,5,4.888888889,Male,20,163
effortratingclickstaskload,2347,31874,5,High,130.8,Pleasure,4.7,3.944444444,Male,20,163
effortratingclickstaskload,2347,31874,5,High,130.8,Performance,2.5,1.037037037,Male,20,163
effortratingclickstaskload,2347,31874,5,High,130.8,Mental,4.3,2.907407407,Male,20,163
effortratingclickstaskload,2347,31874,5,High,130.8,Physical,6.8,3.037037037,Male,20,163
effortratingclickstaskload,2347,31874,5,High,130.8,Temporal,2.2,2.018518519,Male,20,163
effortratingclickstaskload,2347,31874,6,Medium,56.7,Physical,3.2,2.925925926,Male,20,163
effortratingclickstaskload,2347,31874,6,Medium,56.7,Pleasure,7.4,4.888888889,Male,20,163
effortratingclickstaskload,2347,31874,6,Medium,56.7,Effort,10.3,4.074074074,Male,20,163
effortratingclickstaskload,2347,31874,6,Medium,56.7,Frustration,3.1,3.907407407,Male,20,163
effortratingclickstaskload,2347,31874,6,Medium,56.7,Performance,2.9,1.074074074,Male,20,163
effortratingclickstaskload,2347,31874,6,Medium,56.7,Mental,4,3.925925926,Male,20,163
effortratingclickstaskload,2347,31874,6,Medium,56.7,Temporal,2.2,3.055555556,Male,20,163
effortratingclickstaskload,2347,31874,7,High,122,Temporal,4.8,2.444444444,Male,20,163
effortratingclickstaskload,2347,31874,7,High,122,Physical,2.1,3.925925926,Male,20,163
effortratingclickstaskload,2347,31874,7,High,122,Frustration,3.8,4.888888889,Male,20,163
effortratingclickstaskload,2347,31874,7,High,122,Performance,3.1,1,Male,20,163
effortratingclickstaskload,2347,31874,7,High,122,Pleasure,4.2,2.981481481,Male,20,163
effortratingclickstaskload,2347,31874,7,High,122,Effort,5.5,4.074074074,Male,20,163
effortratingclickstaskload,2347,31874,7,High,122,Mental,5.1,4,Male,20,163
effortratingclickstaskload,2347,31874,8,Medium,52.4,Performance,5.6,1.037037037,Male,20,163
effortratingclickstaskload,2347,31874,8,Medium,52.4,Pleasure,7.9,2.944444444,Male,20,163
effortratingclickstaskload,2347,31874,8,Medium,52.4,Frustration,7.1,5.037037037,Male,20,163
effortratingclickstaskload,2347,31874,8,Medium,52.4,Effort,17.8,5,Male,20,163
effortratingclickstaskload,2347,31874,8,Medium,52.4,Mental,8.3,2.962962963,Male,20,163
effortratingclickstaskload,2347,31874,8,Medium,52.4,Temporal,5.7,3.481481481,Male,20,163
effortratingclickstaskload,2347,31874,8,Medium,52.4,Physical,6.2,4,Male,20,163
effortratingclickstaskload,2347,31874,9,Low,15.6,Physical,3,1,Male,20,163
effortratingclickstaskload,2347,31874,9,Low,15.6,Pleasure,4.4,7.925925926,Male,20,163
effortratingclickstaskload,2347,31874,9,Low,15.6,Mental,2.5,1.092592593,Male,20,163
effortratingclickstaskload,2347,31874,9,Low,15.6,Performance,3,1.037037037,Male,20,163
effortratingclickstaskload,2347,31874,9,Low,15.6,Effort,3,1,Male,20,163
effortratingclickstaskload,2347,31874,9,Low,15.6,Frustration,2.8,2,Male,20,163
effortratingclickstaskload,2347,31874,9,Low,15.6,Temporal,2.6,9.962962963,Male,20,163
effortratingclickstaskload,2347,31874,10,Medium,58.1,Performance,39,1.037037037,Male,20,163
effortratingclickstaskload,2347,31874,10,Medium,58.1,Effort,4.1,3,Male,20,163
effortratingclickstaskload,2347,31874,10,Medium,58.1,Physical,2.1,3.555555556,Male,20,163
effortratingclickstaskload,2347,31874,10,Medium,58.1,Temporal,8.8,4.074074074,Male,20,163
effortratingclickstaskload,2347,31874,10,Medium,58.1,Mental,9.4,3.037037037,Male,20,163
effortratingclickstaskload,2347,31874,10,Medium,58.1,Pleasure,2.3,2.092592593,Male,20,163
effortratingclickstaskload,2347,31874,10,Medium,58.1,Frustration,7.2,5.018518519,Male,20,163
effortratingclickstaskload,2347,31874,11,Low,25.9,Effort,14.4,1.925925926,Male,20,163
effortratingclickstaskload,2347,31874,11,Low,25.9,Physical,12.2,2,Male,20,163
effortratingclickstaskload,2347,31874,11,Low,25.9,Pleasure,6.5,5.037037037,Male,20,163
effortratingclickstaskload,2347,31874,11,Low,25.9,Performance,7,1.092592593,Male,20,163
effortratingclickstaskload,2347,31874,11,Low,25.9,Temporal,8.2,4.037037037,Male,20,163
effortratingclickstaskload,2347,31874,11,Low,25.9,Mental,12.4,2.944444444,Male,20,163
effortratingclickstaskload,2347,31874,11,Low,25.9,Frustration,8.9,4.074074074,Male,20,163
effortratingclickstaskload,2347,31874,12,High,114.8,Physical,18.3,1.962962963,Male,20,163
effortratingclickstaskload,2347,31874,12,High,114.8,Mental,1.6,1.944444444,Male,20,163
effortratingclickstaskload,2347,31874,12,High,114.8,Frustration,3.9,4,Male,20,163
effortratingclickstaskload,2347,31874,12,High,114.8,Effort,2.3,4.888888889,Male,20,163
effortratingclickstaskload,2347,31874,12,High,114.8,Temporal,2.1,3.925925926,Male,20,163
effortratingclickstaskload,2347,31874,12,High,114.8,Performance,2.6,1.018518519,Male,20,163
effortratingclickstaskload,2347,31874,12,High,114.8,Pleasure,3.5,3.018518519,Male,20,163
effortratingclickstaskload,2347,31874,13,Medium,51.9,Performance,10.6,1.018518519,Male,20,163
effortratingclickstaskload,2347,31874,13,Medium,51.9,Physical,1.7,2.759259259,Male,20,163
effortratingclickstaskload,2347,31874,13,Medium,51.9,Effort,2.3,1.944444444,Male,20,163
effortratingclickstaskload,2347,31874,13,Medium,51.9,Temporal,2.7,3.925925926,Male,20,163
effortratingclickstaskload,2347,31874,13,Medium,51.9,Mental,2.4,1.833333333,Male,20,163
effortratingclickstaskload,2347,31874,13,Medium,51.9,Frustration,1.8,4.018518519,Male,20,163
effortratingclickstaskload,2347,31874,13,Medium,51.9,Pleasure,2.2,3.148148148,Male,20,163
effortratingclickstaskload,2347,31874,14,High,120.1,Frustration,2.6,3.111111111,Male,20,163
effortratingclickstaskload,2347,31874,14,High,120.1,Pleasure,1.7,2.962962963,Male,20,163
effortratingclickstaskload,2347,31874,14,High,120.1,Performance,4.7,1,Male,20,163
effortratingclickstaskload,2347,31874,14,High,120.1,Temporal,1.8,2.888888889,Male,20,163
effortratingclickstaskload,2347,31874,14,High,120.1,Effort,3.6,2.055555556,Male,20,163
effortratingclickstaskload,2347,31874,14,High,120.1,Physical,2.3,2,Male,20,163
effortratingclickstaskload,2347,31874,14,High,120.1,Mental,2.3,1.833333333,Male,20,163
effortratingclickstaskload,2347,31874,15,Low,20.4,Temporal,6.4,15,Male,20,163
effortratingclickstaskload,2347,31874,15,Low,20.4,Frustration,1.9,1.037037037,Male,20,163
effortratingclickstaskload,2347,31874,15,Low,20.4,Mental,2.3,1.12962963,Male,20,163
effortratingclickstaskload,2347,31874,15,Low,20.4,Performance,1.6,1.092592593,Male,20,163
effortratingclickstaskload,2347,31874,15,Low,20.4,Pleasure,2.7,14.90740741,Male,20,163
effortratingclickstaskload,2347,31874,15,Low,20.4,Effort,2.7,1.037037037,Male,20,163
effortratingclickstaskload,2347,31874,15,Low,20.4,Physical,3.5,1.055555556,Male,20,163
effortratingclickstaskload,2347,31874,16,High,141.5,Pleasure,3.4,2.111111111,Male,20,163
effortratingclickstaskload,2347,31874,16,High,141.5,Physical,12.9,2,Male,20,163
effortratingclickstaskload,2347,31874,16,High,141.5,Performance,4.5,1,Male,20,163
effortratingclickstaskload,2347,31874,16,High,141.5,Frustration,5.6,3.87037037,Male,20,163
effortratingclickstaskload,2347,31874,16,High,141.5,Effort,4.2,3.055555556,Male,20,163
effortratingclickstaskload,2347,31874,16,High,141.5,Mental,1.7,1.037037037,Male,20,163
effortratingclickstaskload,2347,31874,16,High,141.5,Temporal,3.5,2.907407407,Male,20,163
effortratingclickstaskload,2347,31874,17,Low,41.4,Frustration,10,1.037037037,Male,20,163
effortratingclickstaskload,2347,31874,17,Low,41.4,Temporal,9.4,10.01851852,Male,20,163
effortratingclickstaskload,2347,31874,17,Low,41.4,Pleasure,4.2,9.148148148,Male,20,163
effortratingclickstaskload,2347,31874,17,Low,41.4,Mental,2.8,1.037037037,Male,20,163
effortratingclickstaskload,2347,31874,17,Low,41.4,Performance,3,1,Male,20,163
effortratingclickstaskload,2347,31874,17,Low,41.4,Physical,2.8,1.074074074,Male,20,163
effortratingclickstaskload,2347,31874,17,Low,41.4,Effort,1.7,1.037037037,Male,20,163
effortratingclickstaskload,2347,31874,18,Medium,65.3,Physical,8.4,1.018518519,Male,20,163
effortratingclickstaskload,2347,31874,18,Medium,65.3,Temporal,3.7,4.037037037,Male,20,163
effortratingclickstaskload,2347,31874,18,Medium,65.3,Pleasure,6.8,2.074074074,Male,20,163
effortratingclickstaskload,2347,31874,18,Medium,65.3,Frustration,2.9,3.037037037,Male,20,163
effortratingclickstaskload,2347,31874,18,Medium,65.3,Effort,8.8,1,Male,20,163
effortratingclickstaskload,2347,31874,18,Medium,65.3,Mental,6.9,1.037037037,Male,20,163
effortratingclickstaskload,2347,31874,18,Medium,65.3,Performance,4.6,1.018518519,Male,20,163
effortratingclickstaskload,2347,32219,1,Low,22.2482,Physical,3.4854,1.088888945,Female,20,140
effortratingclickstaskload,2347,32219,1,Low,22.2482,Performance,5.2019,1.088888945,Female,20,140
effortratingclickstaskload,2347,32219,1,Low,22.2482,Temporal,5.2787,17.0444449,Female,20,140
effortratingclickstaskload,2347,32219,1,Low,22.2482,Pleasure,3.6985,6.06666678,Female,20,140
effortratingclickstaskload,2347,32219,1,Low,22.2482,Effort,41.7563,12.76296319,Female,20,140
effortratingclickstaskload,2347,32219,1,Low,22.2482,Frustration,88.5678,8.718518292,Female,20,140
effortratingclickstaskload,2347,32219,1,Low,22.2482,Mental,2.2259,4.822222109,Female,20,140
effortratingclickstaskload,2347,32219,2,Medium,35.6413,Mental,3.4366,1,Female,20,140
effortratingclickstaskload,2347,32219,2,Medium,35.6413,Effort,4.1968,1,Female,20,140
effortratingclickstaskload,2347,32219,2,Medium,35.6413,Temporal,2.8848,4.896296183,Female,20,140
effortratingclickstaskload,2347,32219,2,Medium,35.6413,Pleasure,2.1485,4.140740854,Female,20,140
effortratingclickstaskload,2347,32219,2,Medium,35.6413,Frustration,2.4386,17.2518514,Female,20,140
effortratingclickstaskload,2347,32219,2,Medium,35.6413,Physical,1.8013,2.822222109,Female,20,140
effortratingclickstaskload,2347,32219,2,Medium,35.6413,Performance,96.0368,4.274074413,Female,20,140
effortratingclickstaskload,2347,32219,3,High,63.9848,Mental,27.0157,16.25925926,Female,20,140
effortratingclickstaskload,2347,32219,3,High,63.9848,Frustration,5.9525,15.90370461,Female,20,140
effortratingclickstaskload,2347,32219,3,High,63.9848,Effort,3.0597,10.39259282,Female,20,140
effortratingclickstaskload,2347,32219,3,High,63.9848,Physical,7.2277,1.074074074,Female,20,140
effortratingclickstaskload,2347,32219,3,High,63.9848,Temporal,5.2169,2.970370257,Female,20,140
effortratingclickstaskload,2347,32219,3,High,63.9848,Pleasure,1.599,4.422222561,Female,20,140
effortratingclickstaskload,2347,32219,3,High,63.9848,Performance,3.2334,4.392592819,Female,20,140
effortratingclickstaskload,2347,32219,4,Low,14.2078,Performance,71.8526,3.859259146,Female,20,140
effortratingclickstaskload,2347,32219,4,Low,14.2078,Temporal,12.4759,15.54814883,Female,20,140
effortratingclickstaskload,2347,32219,4,Low,14.2078,Frustration,34.4529,14.55555556,Female,20,140
effortratingclickstaskload,2347,32219,4,Low,14.2078,Effort,2.1757,3.918518632,Female,20,140
effortratingclickstaskload,2347,32219,4,Low,14.2078,Physical,1.6011,3.711110998,Female,20,140
effortratingclickstaskload,2347,32219,4,Low,14.2078,Mental,1.3334,5.533333672,Female,20,140
effortratingclickstaskload,2347,32219,4,Low,14.2078,Pleasure,1.8936,3.281481708,Female,20,140
effortratingclickstaskload,2347,32219,5,High,68.5106,Effort,6.6069,15.41481527,Female,20,140
effortratingclickstaskload,2347,32219,5,High,68.5106,Pleasure,1.8005,1.385185242,Female,20,140
effortratingclickstaskload,2347,32219,5,High,68.5106,Performance,83.8968,9.562963415,Female,20,140
effortratingclickstaskload,2347,32219,5,High,68.5106,Mental,192.8009,3.948148374,Female,20,140
effortratingclickstaskload,2347,32219,5,High,68.5106,Physical,16.2313,8.392592819,Female,20,140
effortratingclickstaskload,2347,32219,5,High,68.5106,Frustration,9.2384,19.44444444,Female,20,140
effortratingclickstaskload,2347,32219,5,High,68.5106,Temporal,3.9592,7.014814589,Female,20,140
effortratingclickstaskload,2347,32219,6,Medium,37.0187,Temporal,3.5821,6.111111111,Female,20,140
effortratingclickstaskload,2347,32219,6,Medium,37.0187,Mental,2.1442,9.340741193,Female,20,140
effortratingclickstaskload,2347,32219,6,Medium,37.0187,Physical,9.4631,7.281481708,Female,20,140
effortratingclickstaskload,2347,32219,6,Medium,37.0187,Effort,51.461,6.703703704,Female,20,140
effortratingclickstaskload,2347,32219,6,Medium,37.0187,Frustration,1.5858,12.61481504,Female,20,140
effortratingclickstaskload,2347,32219,6,Medium,37.0187,Performance,2.9989,8.837037263,Female,20,140
effortratingclickstaskload,2347,32219,6,Medium,37.0187,Pleasure,1.3527,6.925925926,Female,20,140
effortratingclickstaskload,2347,32219,7,High,58.5289,Frustration,75.5129,6.007407294,Female,20,140
effortratingclickstaskload,2347,32219,7,High,58.5289,Effort,0.9251,10.15555601,Female,20,140
effortratingclickstaskload,2347,32219,7,High,58.5289,Temporal,0.6031,8.837037263,Female,20,140
effortratingclickstaskload,2347,32219,7,High,58.5289,Physical,0.4516,13.01481459,Female,20,140
effortratingclickstaskload,2347,32219,7,High,58.5289,Performance,1.0464,9.118518971,Female,20,140
effortratingclickstaskload,2347,32219,7,High,58.5289,Mental,1.1803,12.71851829,Female,20,140
effortratingclickstaskload,2347,32219,7,High,58.5289,Pleasure,0.5852,12.98518541,Female,20,140
effortratingclickstaskload,2347,32219,8,Medium,40.0477,Pleasure,4.8956,8.422221996,Female,20,140
effortratingclickstaskload,2347,32219,8,Medium,40.0477,Frustration,1.2909,12.422222,Female,20,140
effortratingclickstaskload,2347,32219,8,Medium,40.0477,Performance,1.0879,11.80000023,Female,20,140
effortratingclickstaskload,2347,32219,8,Medium,40.0477,Physical,1.6999,9.059259485,Female,20,140
effortratingclickstaskload,2347,32219,8,Medium,40.0477,Mental,1.0844,14.08148193,Female,20,140
effortratingclickstaskload,2347,32219,8,Medium,40.0477,Effort,2.0331,15.08888866,Female,20,140
effortratingclickstaskload,2347,32219,8,Medium,40.0477,Temporal,3.5364,9.725926152,Female,20,140
effortratingclickstaskload,2347,32219,9,Low,16.3393,Performance,1.8554,12.22963008,Female,20,140
effortratingclickstaskload,2347,32219,9,Low,16.3393,Temporal,0.6022,9.207407633,Female,20,140
effortratingclickstaskload,2347,32219,9,Low,16.3393,Pleasure,0.5254,12.97037082,Female,20,140
effortratingclickstaskload,2347,32219,9,Low,16.3393,Frustration,1.0518,13.38518496,Female,20,140
effortratingclickstaskload,2347,32219,9,Low,16.3393,Effort,1.2892,8.318518745,Female,20,140
effortratingclickstaskload,2347,32219,9,Low,16.3393,Physical,1.4436,13.8740743,Female,20,140
effortratingclickstaskload,2347,32219,9,Low,16.3393,Mental,1.1215,8.762963189,Female,20,140
effortratingclickstaskload,2347,32219,10,Medium,40.2721,Frustration,3.1396,6.481481481,Female,20,140
effortratingclickstaskload,2347,32219,10,Medium,40.2721,Temporal,32.8283,9.429629856,Female,20,140
effortratingclickstaskload,2347,32219,10,Medium,40.2721,Effort,0.4849,13.28148171,Female,20,140
effortratingclickstaskload,2347,32219,10,Medium,40.2721,Performance,0.4667,7.918519197,Female,20,140
effortratingclickstaskload,2347,32219,10,Medium,40.2721,Mental,0.3818,12.7481486,Female,20,140
effortratingclickstaskload,2347,32219,10,Medium,40.2721,Physical,1.0334,9.933333785,Female,20,140
effortratingclickstaskload,2347,32219,10,Medium,40.2721,Pleasure,0.5748,8.1259257,Female,20,140
effortratingclickstaskload,2347,32219,11,Low,13.9913,Pleasure,2.5504,9.222222222,Female,20,140
effortratingclickstaskload,2347,32219,11,Low,13.9913,Frustration,0.4983,13.9185192,Female,20,140
effortratingclickstaskload,2347,32219,11,Low,13.9913,Effort,0.5209,5.740740741,Female,20,140
effortratingclickstaskload,2347,32219,11,Low,13.9913,Mental,0.6754,7.133333559,Female,20,140
effortratingclickstaskload,2347,32219,11,Low,13.9913,Physical,0.8337,12.95555623,Female,20,140
effortratingclickstaskload,2347,32219,11,Low,13.9913,Performance,1.3029,8.37777823,Female,20,140
effortratingclickstaskload,2347,32219,11,Low,13.9913,Temporal,0.777,9.281481708,Female,20,140
effortratingclickstaskload,2347,32219,12,High,79.1177,Mental,2.2871,9.133333559,Female,20,140
effortratingclickstaskload,2347,32219,12,High,79.1177,Frustration,0.6772,13.53333311,Female,20,140
effortratingclickstaskload,2347,32219,12,High,79.1177,Temporal,0.7512,12.40740741,Female,20,140
effortratingclickstaskload,2347,32219,12,High,79.1177,Pleasure,0.596,13.0444449,Female,20,140
effortratingclickstaskload,2347,32219,12,High,79.1177,Performance,0.4399,9.311110885,Female,20,140
effortratingclickstaskload,2347,32219,12,High,79.1177,Physical,1.3355,6.155555443,Female,20,140
effortratingclickstaskload,2347,32219,12,High,79.1177,Effort,0.5709,12.85185185,Female,20,140
effortratingclickstaskload,2347,32219,13,Medium,42.143,Effort,0.7325,16.08148193,Female,20,140
effortratingclickstaskload,2347,32219,13,Medium,42.143,Mental,0.9802,15.77036992,Female,20,140
effortratingclickstaskload,2347,32219,13,Medium,42.143,Physical,0.538,8.37777823,Female,20,140
effortratingclickstaskload,2347,32219,13,Medium,42.143,Temporal,1.0995,7.607407181,Female,20,140
effortratingclickstaskload,2347,32219,13,Medium,42.143,Frustration,1.2016,10.48148148,Female,20,140
effortratingclickstaskload,2347,32219,13,Medium,42.143,Pleasure,0.4686,13.78518564,Female,20,140
effortratingclickstaskload,2347,32219,13,Medium,42.143,Performance,0.7935,15.577778,Female,20,140
effortratingclickstaskload,2347,32219,14,High,72.804,Effort,0.8591,13.50370393,Female,20,140
effortratingclickstaskload,2347,32219,14,High,72.804,Performance,0.3362,8.214815493,Female,20,140
effortratingclickstaskload,2347,32219,14,High,72.804,Mental,0.2866,8.214815493,Female,20,140
effortratingclickstaskload,2347,32219,14,High,72.804,Physical,0.2201,9.755555329,Female,20,140
effortratingclickstaskload,2347,32219,14,High,72.804,Temporal,0.3607,14.49629607,Female,20,140
effortratingclickstaskload,2347,32219,14,High,72.804,Frustration,0.5895,14.82222267,Female,20,140
effortratingclickstaskload,2347,32219,14,High,72.804,Pleasure,0.3852,14.05185163,Female,20,140
effortratingclickstaskload,2347,32219,15,Low,15.6216,Pleasure,0.8116,9.666666667,Female,20,140
effortratingclickstaskload,2347,32219,15,Low,15.6216,Frustration,0.5713,17.57777913,Female,20,140
effortratingclickstaskload,2347,32219,15,Low,15.6216,Mental,0.4438,7.666666667,Female,20,140
effortratingclickstaskload,2347,32219,15,Low,15.6216,Effort,0.3371,7.888888889,Female,20,140
effortratingclickstaskload,2347,32219,15,Low,15.6216,Performance,0.3942,14.11111111,Female,20,140
effortratingclickstaskload,2347,32219,15,Low,15.6216,Temporal,0.3697,2.911111337,Female,20,140
effortratingclickstaskload,2347,32219,15,Low,15.6216,Physical,0.3541,12.55555556,Female,20,140
effortratingclickstaskload,2347,32219,16,High,67.9475,Effort,0.4993,15.08888866,Female,20,140
effortratingclickstaskload,2347,32219,16,High,67.9475,Pleasure,0.4867,9.977777552,Female,20,140
effortratingclickstaskload,2347,32219,16,High,67.9475,Physical,0.5581,6.422221996,Female,20,140
effortratingclickstaskload,2347,32219,16,High,67.9475,Mental,0.6671,14.76296319,Female,20,140
effortratingclickstaskload,2347,32219,16,High,67.9475,Performance,0.7387,11.34074119,Female,20,140
effortratingclickstaskload,2347,32219,16,High,67.9475,Temporal,0.6173,15.75555646,Female,20,140
effortratingclickstaskload,2347,32219,16,High,67.9475,Frustration,0.9865,14.02222245,Female,20,140
effortratingclickstaskload,2347,32219,17,Low,11.6417,Mental,2.4522,5.622222335,Female,20,140
effortratingclickstaskload,2347,32219,17,Low,11.6417,Pleasure,0.7851,15.14814815,Female,20,140
effortratingclickstaskload,2347,32219,17,Low,11.6417,Frustration,0.5367,6.585185863,Female,20,140
effortratingclickstaskload,2347,32219,17,Low,11.6417,Physical,0.5151,9.992593271,Female,20,140
effortratingclickstaskload,2347,32219,17,Low,11.6417,Effort,0.8328,10.64444422,Female,20,140
effortratingclickstaskload,2347,32219,17,Low,11.6417,Performance,0.5389,4.792592932,Female,20,140
effortratingclickstaskload,2347,32219,17,Low,11.6417,Temporal,0.9409,15.53333311,Female,20,140
effortratingclickstaskload,2347,32219,18,Medium,28.6168,Mental,0.664,15.71111156,Female,20,140
effortratingclickstaskload,2347,32219,18,Medium,28.6168,Performance,0.4808,8.451852304,Female,20,140
effortratingclickstaskload,2347,32219,18,Medium,28.6168,Temporal,1.048,8.600000452,Female,20,140
effortratingclickstaskload,2347,32219,18,Medium,28.6168,Frustration,0.6129,14.422222,Female,20,140
effortratingclickstaskload,2347,32219,18,Medium,28.6168,Pleasure,0.531,10.52592638,Female,20,140
effortratingclickstaskload,2347,32219,18,Medium,28.6168,Effort,0.5805,4.911111337,Female,20,140
effortratingclickstaskload,2347,32219,18,Medium,28.6168,Physical,0.5999,15.16296274,Female,20,140
effortratingclickstaskload,2347,32667,1,Low,16.3995,Frustration,6.015,13.05418396,Female,22,318
effortratingclickstaskload,2347,32667,1,Low,16.3995,Effort,3.7515,18.16033936,Female,22,318
effortratingclickstaskload,2347,32667,1,Low,16.3995,Temporal,5.3846,2.161357456,Female,22,318
effortratingclickstaskload,2347,32667,1,Low,16.3995,Mental,5.0699,13.05671861,Female,22,318
effortratingclickstaskload,2347,32667,1,Low,16.3995,Performance,12.0529,8.114966498,Female,22,318
effortratingclickstaskload,2347,32667,1,Low,16.3995,Physical,2.9839,18.20336236,Female,22,318
effortratingclickstaskload,2347,32667,1,Low,16.3995,Pleasure,4.0547,1.708719042,Female,22,318
effortratingclickstaskload,2347,32667,2,Medium,50.7264,Effort,3.489,20.34926351,Female,22,318
effortratingclickstaskload,2347,32667,2,Medium,50.7264,Pleasure,2.2257,1.100311279,Female,22,318
effortratingclickstaskload,2347,32667,2,Medium,50.7264,Physical,2.561,20.39758809,Female,22,318
effortratingclickstaskload,2347,32667,2,Medium,50.7264,Frustration,2.0438,20.7836931,Female,22,318
effortratingclickstaskload,2347,32667,2,Medium,50.7264,Performance,5.0215,13.8424903,Female,22,318
effortratingclickstaskload,2347,32667,2,Medium,50.7264,Mental,2.9431,16.93904453,Female,22,318
effortratingclickstaskload,2347,32667,2,Medium,50.7264,Temporal,4.1873,1.133724637,Female,22,318
effortratingclickstaskload,2347,32667,3,High,58.328,Physical,3.7365,19.12041728,Female,22,318
effortratingclickstaskload,2347,32667,3,High,58.328,Temporal,5.3708,6.889589945,Female,22,318
effortratingclickstaskload,2347,32667,3,High,58.328,Mental,3.6191,15.92944336,Female,22,318
effortratingclickstaskload,2347,32667,3,High,58.328,Frustration,3.084,16.8281623,Female,22,318
effortratingclickstaskload,2347,32667,3,High,58.328,Performance,3.4511,5.100407918,Female,22,318
effortratingclickstaskload,2347,32667,3,High,58.328,Pleasure,3.4132,8.269732157,Female,22,318
effortratingclickstaskload,2347,32667,3,High,58.328,Effort,4.9572,14.18086412,Female,22,318
effortratingclickstaskload,2347,32667,4,Low,11.7627,Effort,4.3625,7.855873956,Female,22,318
effortratingclickstaskload,2347,32667,4,Low,11.7627,Performance,2.8801,4.175493028,Female,22,318
effortratingclickstaskload,2347,32667,4,Low,11.7627,Frustration,4.6051,7.154275682,Female,22,318
effortratingclickstaskload,2347,32667,4,Low,11.7627,Temporal,3.1599,14.05966865,Female,22,318
effortratingclickstaskload,2347,32667,4,Low,11.7627,Mental,4.0017,2.018852658,Female,22,318
effortratingclickstaskload,2347,32667,4,Low,11.7627,Physical,17.9095,7.360081143,Female,22,318
effortratingclickstaskload,2347,32667,4,Low,11.7627,Pleasure,4.6122,10.1566391,Female,22,318
effortratingclickstaskload,2347,32667,5,High,55.2109,Temporal,7.1129,5.852950202,Female,22,318
effortratingclickstaskload,2347,32667,5,High,55.2109,Physical,2.8131,14.89940559,Female,22,318
effortratingclickstaskload,2347,32667,5,High,55.2109,Effort,3.1774,12.35587056,Female,22,318
effortratingclickstaskload,2347,32667,5,High,55.2109,Mental,2.7617,11.63687134,Female,22,318
effortratingclickstaskload,2347,32667,5,High,55.2109,Frustration,2.4634,13.131663,Female,22,318
effortratingclickstaskload,2347,32667,5,High,55.2109,Pleasure,12.8882,8.779748705,Female,22,318
effortratingclickstaskload,2347,32667,5,High,55.2109,Performance,2.8678,8.962765164,Female,22,318
effortratingclickstaskload,2347,32667,6,Medium,33.5357,Frustration,5.1858,12.72969225,Female,22,318
effortratingclickstaskload,2347,32667,6,Medium,33.5357,Mental,2.6122,10.86962212,Female,22,318
effortratingclickstaskload,2347,32667,6,Medium,33.5357,Performance,3.3,10.39791446,Female,22,318
effortratingclickstaskload,2347,32667,6,Medium,33.5357,Physical,4.0355,14.78235541,Female,22,318
effortratingclickstaskload,2347,32667,6,Medium,33.5357,Effort,4.6546,12.98119609,Female,22,318
effortratingclickstaskload,2347,32667,6,Medium,33.5357,Temporal,4.502,8.135587056,Female,22,318
effortratingclickstaskload,2347,32667,6,Medium,33.5357,Pleasure,2.7269,8.132509867,Female,22,318
effortratingclickstaskload,2347,32667,7,High,67.0977,Temporal,16.2343,6.996581184,Female,22,318
effortratingclickstaskload,2347,32667,7,High,67.0977,Pleasure,1.2959,7.866611057,Female,22,318
effortratingclickstaskload,2347,32667,7,High,67.0977,Physical,1.2282,14.69384087,Female,22,318
effortratingclickstaskload,2347,32667,7,High,67.0977,Frustration,1.0459,14.29950799,Female,22,318
effortratingclickstaskload,2347,32667,7,High,67.0977,Mental,2.1626,10.56393772,Female,22,318
effortratingclickstaskload,2347,32667,7,High,67.0977,Effort,3.2184,13.4596049,Female,22,318
