experiment_name,id,condition,trial,effort_level,effort_time,rating,rt,nasa_tlx
buysell_between10,10,Sell,1,Low,21.170691499995883,0.45,2.088,190
buysell_between10,10,Sell,2,Medium,62.58309030000237,0.75,15.287,190
buysell_between10,10,Sell,3,High,160.71384670000407,1,1.153,190
buysell_between10,10,Sell,4,Low,22.944561800002703,0.25,6.422,190
buysell_between10,10,Sell,5,High,154.9330620999972,0.75,3.473,190
buysell_between10,10,Sell,6,Medium,60.44937299999583,0.45,1.423,190
buysell_between10,10,Sell,7,High,149.60191730000952,1,1.323,190
buysell_between10,10,Sell,8,Medium,65.91536880000785,0.75,1.968,190
buysell_between10,10,Sell,9,Low,22.462066699998104,0.25,3.891,190
buysell_between10,10,Sell,10,Medium,70.86195260001114,0.45,3.623,190
buysell_between10,10,Sell,11,Low,28.293690200007404,0.25,1.101,190
buysell_between10,10,Sell,12,High,174.5587380999932,0.75,4.472,190
buysell_between10,10,Sell,13,Medium,60.96704150000005,0.45,5.338,190
buysell_between10,10,Sell,14,High,185.4389330999984,1,3.318,190
buysell_between10,10,Sell,15,Low,26.761992400002782,0.25,4.506,190
buysell_between10,10,Sell,16,High,194.73612099999445,0.75,16.186,190
buysell_between10,10,Sell,17,Low,22.395763699998497,0.25,2.838,190
buysell_between10,10,Sell,18,Medium,67.43042520000017,0.45,1.683,190
buysell_between11,11,Buy,1,Low,19.93595909999999,0.45,7.039,200
buysell_between11,11,Buy,2,Medium,60.26409380000018,0.75,1.856,200
buysell_between11,11,Buy,3,High,153.91382559999988,0.75,2.725,200
buysell_between11,11,Buy,4,Low,18.778766799999858,0.45,5.173,200
buysell_between11,11,Buy,5,High,154.76585380000006,0.1,4.965,200
buysell_between11,11,Buy,6,Medium,59.89851159999989,0.45,0.941,200
buysell_between11,11,Buy,7,High,159.23169370000005,0.75,2.655,200
buysell_between11,11,Buy,8,Medium,59.11547159999964,0.45,1.889,200
buysell_between11,11,Buy,9,Low,27.72702479999998,0.25,2.924,200
buysell_between11,11,Buy,10,Medium,56.01652839999997,1,2.352,200
buysell_between11,11,Buy,11,Low,18.981084799999735,0.75,0.766,200
buysell_between11,11,Buy,12,High,145.18488899999966,0.25,3.581,200
buysell_between11,11,Buy,13,Medium,59.04874420000033,0.75,1.65,200
buysell_between11,11,Buy,14,High,144.7529356,1,2.242,200
buysell_between11,11,Buy,15,Low,18.37999949999994,0.75,1.156,200
buysell_between11,11,Buy,16,High,153.1985348000003,0.45,6.405,200
buysell_between11,11,Buy,17,Low,17.64702030000035,0.75,1.491,200
buysell_between11,11,Buy,18,Medium,57.148966299999756,0.75,3.039,200
buysell_between12,12,Sell,1,Low,17.6553827000007,0.1,8.771,280
buysell_between12,12,Sell,2,Medium,49.20412579999993,0.45,5.616,280
buysell_between12,12,Sell,3,High,123.14534350000031,1,3.672,280
buysell_between12,12,Sell,4,Low,16.813201700000718,0.45,3.138,280
buysell_between12,12,Sell,5,High,128.85800290000043,1,2.939,280
buysell_between12,12,Sell,6,Medium,50.08721870000045,0.75,4.484,280
buysell_between12,12,Sell,7,High,127.5435293999999,0.45,3.406,280
buysell_between12,12,Sell,8,Medium,49.25449099999969,0.25,3.873,280
buysell_between12,12,Sell,9,Low,14.682399899999837,0.1,7.551,280
buysell_between12,12,Sell,10,Medium,42.60534290000032,0.75,3.804,280
buysell_between12,12,Sell,11,Low,14.600102100000186,0.1,6.618,280
buysell_between12,12,Sell,12,High,111.46408859999974,1,5.983,280
buysell_between12,12,Sell,13,Medium,44.85598459999983,0.45,3.222,280
buysell_between12,12,Sell,14,High,128.35855840000022,1,6.918,280
buysell_between12,12,Sell,15,Low,16.36607880000065,0.25,5.553,280
buysell_between12,12,Sell,16,High,133.92375840000022,0.75,2.673,280
buysell_between12,12,Sell,17,Low,15.16529890000038,0.1,4.224,280
buysell_between12,12,Sell,18,Medium,51.43564340000012,0.45,2.654,280
buysell_between13,13,Buy,1,Low,14.905708700000105,0.75,1.418,250
buysell_between13,13,Buy,2,Medium,54.71781209999972,0.75,2.137,250
buysell_between13,13,Buy,3,High,138.18933240000024,0.45,1.174,250
buysell_between13,13,Buy,4,Low,18.180542900000546,1,2.441,250
buysell_between13,13,Buy,5,High,138.60555770000065,0.25,2.787,250
buysell_between13,13,Buy,6,Medium,56.41796350000004,1,1.368,250
buysell_between13,13,Buy,7,High,142.67037939999955,0.25,2.75,250
buysell_between13,13,Buy,8,Medium,50.13650599999983,0.25,2.805,250
buysell_between13,13,Buy,9,Low,16.76470700000027,1,3.388,250
buysell_between13,13,Buy,10,Medium,55.15089859999989,0.45,0.858,250
buysell_between13,13,Buy,11,Low,17.680734100000336,0.75,2.54,250
buysell_between13,13,Buy,12,High,142.90301720000116,0.1,3.605,250
buysell_between13,13,Buy,13,Medium,53.61912090000078,0.45,1.366,250
buysell_between13,13,Buy,14,High,144.51953660000072,0.1,1.942,250
buysell_between13,13,Buy,15,Low,17.414688200000455,1,4.088,250
buysell_between13,13,Buy,16,High,146.50265369999943,0.1,2.387,250
buysell_between13,13,Buy,17,Low,20.380175000000236,1,2.321,250
buysell_between13,13,Buy,18,Medium,56.76686730000074,0.25,3.421,250
buysell_between14,14,Sell,1,Low,23.27047820000007,0.1,6.083,345
buysell_between14,14,Sell,2,Medium,68.14875120000033,0.1,3.054,345
buysell_between14,14,Sell,3,High,189.0710511999987,0.1,2.775,345
buysell_between14,14,Sell,4,Low,24.545802800001184,0.1,2.54,345
buysell_between14,14,Sell,5,High,178.8407360000001,0.1,3.67,345
buysell_between14,14,Sell,6,Medium,70.31325649999962,0.1,3.49,345
buysell_between14,14,Sell,7,High,178.42560729999968,0.1,4.455,345
buysell_between14,14,Sell,8,Medium,69.47985270000027,0.1,3.522,345
buysell_between14,14,Sell,9,Low,29.42640019999999,0.1,2.885,345
buysell_between14,14,Sell,10,Medium,67.11341859999993,0.1,4.901,345
buysell_between14,14,Sell,11,Low,38.956408300000476,0.1,4.307,345
buysell_between14,14,Sell,12,High,167.36159670000052,0.1,7.351,345
buysell_between14,14,Sell,13,Medium,69.36347540000133,0.1,4.871,345
buysell_between14,14,Sell,14,High,159.9987672999996,0.45,3.741,345
buysell_between14,14,Sell,15,Low,33.626337600000625,0.1,2.356,345
buysell_between14,14,Sell,16,High,161.44677559999946,0.25,2.422,345
buysell_between14,14,Sell,17,Low,24.828931300000477,0.1,3.773,345
buysell_between14,14,Sell,18,Medium,63.39877669999987,0.25,4.739,345
buysell_between15,15,Sell,1,Low,22.08618209999986,0.25,6.222,345
buysell_between15,15,Sell,2,Medium,84.74052549999942,0.75,6.271,345
buysell_between15,15,Sell,3,High,167.7961464,1,2.408,345
buysell_between15,15,Sell,4,Low,32.19343369999842,0.1,2.371,345
buysell_between15,15,Sell,5,High,193.9196570999993,1,2.234,345
buysell_between15,15,Sell,6,Medium,76.47721450000063,0.45,1.351,345
buysell_between15,15,Sell,7,High,183.9062357999992,0.75,2.672,345
buysell_between15,15,Sell,8,Medium,81.95964979999917,0.75,6.067,345
buysell_between15,15,Sell,9,Low,28.944534199999907,0.1,1.625,345
buysell_between15,15,Sell,10,Medium,87.95600639999975,0.45,2.008,345
buysell_between15,15,Sell,11,Low,28.260745900000984,0.1,2.036,345
buysell_between15,15,Sell,12,High,186.52299129999847,1,1.657,345
buysell_between15,15,Sell,13,Medium,81.60856669999885,0.25,2.305,345
buysell_between15,15,Sell,14,High,218.8279225999995,1,2.824,345
buysell_between15,15,Sell,15,Low,38.54072140000062,0.25,2.124,345
buysell_between15,15,Sell,16,High,211.17931169999792,1,3.487,345
buysell_between15,15,Sell,17,Low,36.42416869999943,0.25,2.925,345
buysell_between15,15,Sell,18,Medium,87.24096999999892,0.45,1.451,345
buysell_between16,16,Buy,1,Low,22.803395399998408,0.45,7.622,265
buysell_between16,16,Buy,2,Medium,63.282578499998635,0.25,5.437,265
buysell_between16,16,Buy,3,High,178.2589384999992,0.1,5.008,265
buysell_between16,16,Buy,4,Low,26.978781800000434,0.75,5.502,265
buysell_between16,16,Buy,5,High,187.42175729999872,0.25,11.521,265
buysell_between16,16,Buy,6,Medium,80.34356300000218,0.1,6.922,265
buysell_between16,16,Buy,7,High,165.5457284999975,0.45,6.502,265
buysell_between16,16,Buy,8,Medium,71.47959189999892,0.75,11.019,265
buysell_between16,16,Buy,9,Low,29.32768170000054,1,4.842,265
buysell_between16,16,Buy,10,Medium,87.05713990000004,0.25,8.103,265
buysell_between16,16,Buy,11,Low,30.226757799999177,0.75,10.12,265
buysell_between16,16,Buy,12,High,181.27286420000019,0.1,6.857,265
buysell_between16,16,Buy,13,Medium,68.79735069999879,0.25,8.531,265
buysell_between16,16,Buy,14,High,172.20953929999814,0.1,5.435,265
buysell_between16,16,Buy,15,Low,25.26173320000089,0.45,4.224,265
buysell_between16,16,Buy,16,High,178.52451680000013,0.1,3.748,265
buysell_between16,16,Buy,17,Low,28.7110612999968,0.75,2.049,265
buysell_between16,16,Buy,18,Medium,63.032032200000685,0.1,4.866,265
buysell_between17,17,Buy,1,Low,24.586548800001765,0.25,2.401,325
buysell_between17,17,Buy,2,Medium,60.84978599999886,0.45,3.94,325
buysell_between17,17,Buy,3,High,133.3739186999992,0.75,13.186,325
buysell_between17,17,Buy,4,Low,25.179107199997816,0.1,3.001,325
buysell_between17,17,Buy,5,High,141.82096079999974,1,2.351,325
buysell_between17,17,Buy,6,Medium,60.616969400001835,0.45,2.99,325
buysell_between17,17,Buy,7,High,140.60554590000174,0.75,3.572,325
buysell_between17,17,Buy,8,Medium,62.182689199999004,0.45,3.437,325
buysell_between17,17,Buy,9,Low,19.41347289999976,0.1,4.44,325
buysell_between17,17,Buy,10,Medium,50.70231369999965,0.25,1.556,325
buysell_between17,17,Buy,11,Low,14.582387500002369,0.1,2.951,325
buysell_between17,17,Buy,12,High,133.7733468999977,1,1.617,325
buysell_between17,17,Buy,13,Medium,53.10186220000105,0.45,0.492,325
buysell_between17,17,Buy,14,High,134.95732049999788,0.75,3.039,325
buysell_between17,17,Buy,15,Low,24.095472699998936,0.1,5.151,325
buysell_between17,17,Buy,16,High,117.71318179999798,0.45,1.223,325
buysell_between17,17,Buy,17,Low,13.849196299997857,0.1,2.154,325
buysell_between17,17,Buy,18,Medium,59.15045070000269,0.45,1.224,325
buysell_between18,18,Buy,1,Low,23.51344050001353,0.25,10.654,325
buysell_between18,18,Buy,2,Medium,51.486028900020756,0.75,4.143,325
buysell_between18,18,Buy,3,High,129.7530539999716,0.25,3.653,325
buysell_between18,18,Buy,4,Low,18.657967500039376,1,1.112,325
buysell_between18,18,Buy,5,High,148.23027280002134,0.45,1.016,325
buysell_between18,18,Buy,6,Medium,50.964011000003666,0.1,1.595,325
buysell_between18,18,Buy,7,High,138.13769790000515,0.75,2.479,325
buysell_between18,18,Buy,8,Medium,48.04824520001421,1,1.155,325
buysell_between18,18,Buy,9,Low,18.407817900006194,0.25,2.404,325
buysell_between18,18,Buy,10,Medium,57.746954099973664,0.1,3.217,325
buysell_between18,18,Buy,11,Low,17.194661500048824,0.75,1.294,325
buysell_between18,18,Buy,12,High,125.73923389997799,1,1.372,325
buysell_between18,18,Buy,13,Medium,52.82934039999964,0.25,3.312,325
buysell_between18,18,Buy,14,High,138.46812450001016,0.75,2.612,325
buysell_between18,18,Buy,15,Low,19.592550999950618,0.45,22.449,325
buysell_between18,18,Buy,16,High,141.01620640000328,0.25,4.423,325
buysell_between18,18,Buy,17,Low,19.4738063000259,1,1.609,325
buysell_between18,18,Buy,18,Medium,56.37945970002329,0.75,4.749,325
buysell_between19,19,Sell,1,Low,18.349442800041288,0.45,7.6,180
buysell_between19,19,Sell,2,Medium,54.4501793999807,0.75,5.579,180
buysell_between19,19,Sell,3,High,150.44417700002668,0.75,5.814,180
buysell_between19,19,Sell,4,Low,17.825098899949808,0.25,10.954,180
buysell_between19,19,Sell,5,High,149.18110909999814,0.75,4.773,180
buysell_between19,19,Sell,6,Medium,62.942184299987275,0.45,4.663,180
buysell_between19,19,Sell,7,High,152.18133940000553,0.75,3.345,180
buysell_between19,19,Sell,8,Medium,62.015471199993044,0.45,4.505,180
buysell_between19,19,Sell,9,Low,19.481140399992,0.25,2.675,180
buysell_between19,19,Sell,10,Medium,57.13201599998865,0.45,5.247,180
buysell_between19,19,Sell,11,Low,19.002533299964853,0.25,1.759,180
buysell_between19,19,Sell,12,High,151.62954230001196,0.75,2.522,180
buysell_between19,19,Sell,13,Medium,57.065165899985004,0.45,5.344,180
buysell_between19,19,Sell,14,High,148.56539399997564,0.75,5.727,180
buysell_between19,19,Sell,15,Low,22.161603900021873,0.25,2.543,180
buysell_between19,19,Sell,16,High,145.403427799989,0.45,4.413,180
buysell_between19,19,Sell,17,Low,17.6950278999866,0.25,6.941,180
buysell_between19,19,Sell,18,Medium,50.715718500025105,0.45,0.626,180
buysell_between1,1,Buy,1,Low,32.655801899999915,1,6.5,335
buysell_between1,1,Buy,2,Medium,97.26088460000005,0.75,2.261,335
buysell_between1,1,Buy,3,High,212.38168559999986,1,7.341,335
buysell_between1,1,Buy,4,Low,32.34181879999983,0.1,4.605,335
buysell_between1,1,Buy,5,High,221.28061950000006,1,2.408,335
buysell_between1,1,Buy,6,Medium,80.00476709999998,1,2.546,335
buysell_between1,1,Buy,7,High,193.21299299999987,0.25,2.96,335
buysell_between1,1,Buy,8,Medium,83.01651960000027,0.45,6.639,335
buysell_between1,1,Buy,9,Low,28.6430991000002,0.25,2.703,335
buysell_between1,1,Buy,10,Medium,79.84679800000004,0.45,4.19,335
buysell_between1,1,Buy,11,Low,27.479677200000424,0.75,8.998,335
buysell_between1,1,Buy,12,High,221.1427991999999,0.25,4.771,335
buysell_between1,1,Buy,13,Medium,85.00145429999975,0.75,2.258,335
buysell_between1,1,Buy,14,High,229.4548537999999,0.25,2.748,335
buysell_between1,1,Buy,15,Low,30.20234470000014,1,1.051,335
buysell_between1,1,Buy,16,High,194.37724670000034,0.25,3.496,335
buysell_between1,1,Buy,17,Low,25.3856624,1,1.893,335
buysell_between1,1,Buy,18,Medium,72.65301290000025,0.75,2.864,335
buysell_between20,20,Buy,1,Low,25.578414299990982,1,12.537,230
buysell_between20,20,Buy,2,Medium,68.93078509997576,1,7.364,230
buysell_between20,20,Buy,3,High,205.0576251000166,1,3.206,230
buysell_between20,20,Buy,4,Low,29.403249500028323,1,3.2,230
buysell_between20,20,Buy,5,High,222.03511399996933,1,3.398,230
buysell_between20,20,Buy,6,Medium,96.28176009998424,1,2.576,230
buysell_between20,20,Buy,7,High,243.48101160000078,1,3.834,230
buysell_between20,20,Buy,8,Medium,94.91564040002413,1,2.245,230
buysell_between20,20,Buy,9,Low,33.603295400040224,1,5.728,230
buysell_between20,20,Buy,10,Medium,80.6550446000183,1,1.944,230
buysell_between20,20,Buy,11,Low,37.58544039999833,1,2.215,230
buysell_between20,20,Buy,12,High,246.8827385000186,1,2.844,230
buysell_between20,20,Buy,13,Medium,103.94421979994513,1,2.36,230
buysell_between20,20,Buy,14,High,244.77899980003713,1,3.734,230
buysell_between20,20,Buy,15,Low,68.4280671000015,1,1.658,230
buysell_between20,20,Buy,16,High,263.19238820002647,1,2.256,230
buysell_between20,20,Buy,17,Low,30.90663919999497,1,4.903,230
buysell_between20,20,Buy,18,Medium,90.68237619998399,1,1.522,230
buysell_between21,21,Buy,1,Low,15.9155022999621,0.25,1.859,365
buysell_between21,21,Buy,2,Medium,39.539734000049066,0.75,3.114,365
buysell_between21,21,Buy,3,High,147.24697180005023,1,1.74,365
buysell_between21,21,Buy,4,Low,16.92590360000031,0.1,0.882,365
buysell_between21,21,Buy,5,High,139.25695589999668,0.75,2.102,365
buysell_between21,21,Buy,6,Medium,55.61335170001257,0.25,7.775,365
buysell_between21,21,Buy,7,High,123.5751631000312,0.75,2.656,365
buysell_between21,21,Buy,8,Medium,60.69438679999439,0.45,1.477,365
buysell_between21,21,Buy,9,Low,18.296796299982816,0.1,2.643,365
buysell_between21,21,Buy,10,Medium,80.60700999997789,0.45,1.619,365
buysell_between21,21,Buy,11,Low,29.50616639998043,0.1,1.974,365
buysell_between21,21,Buy,12,High,255.6261749000405,1,2.08,365
buysell_between21,21,Buy,13,Medium,84.68750609998824,0.45,2.046,365
buysell_between21,21,Buy,14,High,187.70462849998148,1,2.222,365
buysell_between21,21,Buy,15,Low,66.2655786999967,0.45,1.47,365
buysell_between21,21,Buy,16,High,106.5513806999661,0.75,5.013,365
buysell_between21,21,Buy,17,Low,13.663956300006248,0.1,1.98,365
buysell_between21,21,Buy,18,Medium,51.015660499979276,0.45,1.244,365
buysell_between22,22,Buy,1,Low,15.249741500010714,0.1,4.395,265
buysell_between22,22,Buy,2,Medium,44.7519283000147,0.1,4.708,265
buysell_between22,22,Buy,3,High,110.09513919998426,0.25,3.966,265
buysell_between22,22,Buy,4,Low,16.06066129996907,0.25,5.443,265
buysell_between22,22,Buy,5,High,113.94585369998822,0.25,6.024,265
buysell_between22,22,Buy,6,Medium,49.05044279998401,0.25,6.173,265
buysell_between22,22,Buy,7,High,120.37387949996628,0.25,3.157,265
buysell_between22,22,Buy,8,Medium,50.617695899971295,0.25,1.689,265
buysell_between22,22,Buy,9,Low,17.059108699962962,0.25,4.623,265
buysell_between22,22,Buy,10,Medium,48.737773299973924,0.25,3.526,265
buysell_between22,22,Buy,11,Low,21.57698429998709,0.25,5.155,265
buysell_between22,22,Buy,12,High,138.16740750003373,0.25,6.173,265
buysell_between22,22,Buy,13,Medium,52.69787430000724,0.25,3.193,265
buysell_between22,22,Buy,14,High,132.21766339999158,0.25,2.65,265
buysell_between22,22,Buy,15,Low,17.628626899968367,0.25,3.861,265
buysell_between22,22,Buy,16,High,141.43304169998737,0.25,2.824,265
buysell_between22,22,Buy,17,Low,26.108770599996205,0.25,3.174,265
buysell_between22,22,Buy,18,Medium,47.83306370000355,0.25,3.401,265
buysell_between23,23,Buy,1,Low,35.90923380001914,0.1,5.008,330
buysell_between23,23,Buy,2,Medium,73.42589100002078,0.45,3.057,330
buysell_between23,23,Buy,3,High,193.53416450001532,0.75,14.532,330
buysell_between23,23,Buy,4,Low,24.67909279995365,0.1,2.983,330
buysell_between23,23,Buy,5,High,196.45040539995534,0.75,2.976,330
buysell_between23,23,Buy,6,Medium,70.6948128999793,0.45,2.631,330
buysell_between23,23,Buy,7,High,188.18244020000566,1,1.026,330
buysell_between23,23,Buy,8,Medium,70.70814900001278,0.45,3.64,330
buysell_between23,23,Buy,9,Low,36.53698849998182,0.1,2.957,330
buysell_between23,23,Buy,10,Medium,99.8647987000295,0.45,5.273,330
buysell_between23,23,Buy,11,Low,33.936844200012274,0.25,10.201,330
buysell_between23,23,Buy,12,High,193.5343833999941,0.75,12.688,330
buysell_between23,23,Buy,13,Medium,95.61655829998199,0.45,0.567,330
buysell_between23,23,Buy,14,High,215.33939779998036,1,2.302,330
buysell_between23,23,Buy,15,Low,43.485233600018546,0.25,14.888,330
buysell_between23,23,Buy,16,High,223.84371889999602,0.75,21.97,330
buysell_between23,23,Buy,17,Low,47.84324409998953,0.25,3.27,330
buysell_between23,23,Buy,18,Medium,88.81811549997656,0.45,4.406,330
buysell_between24,24,Buy,1,Low,16.931922999967355,0.75,3.671,355
buysell_between24,24,Buy,2,Medium,49.284551799995825,0.25,2.787,355
buysell_between24,24,Buy,3,High,128.5009965999634,0.45,4.388,355
buysell_between24,24,Buy,4,Low,43.06404779996956,0.25,6.206,355
buysell_between24,24,Buy,5,High,126.953468599997,0.75,3.939,355
buysell_between24,24,Buy,6,Medium,52.62936139997328,0.45,3.235,355
buysell_between24,24,Buy,7,High,123.32354680000572,1,3.657,355
buysell_between24,24,Buy,8,Medium,53.78201750002336,0.45,4.133,355
buysell_between24,24,Buy,9,Low,27.539229499991052,0.25,4.811,355
buysell_between24,24,Buy,10,Medium,54.17781600001035,0.25,4.663,355
buysell_between24,24,Buy,11,Low,20.246689899999183,0.45,4.267,355
buysell_between24,24,Buy,12,High,117.82628659997135,1,6.461,355
buysell_between24,24,Buy,13,Medium,57.12519259995315,0.45,4.852,355
buysell_between24,24,Buy,14,High,177.76822670002002,0.25,6.141,355
buysell_between24,24,Buy,15,Low,22.1567108000163,0.25,3.888,355
buysell_between24,24,Buy,16,High,152.77858730003936,0.45,2.587,355
buysell_between24,24,Buy,17,Low,15.547396500012837,0.75,2.592,355
buysell_between24,24,Buy,18,Medium,68.33064890000969,0.45,4.779,355
buysell_between25,25,Sell,1,Low,13.351941500033718,0.25,4.655,205
buysell_between25,25,Sell,2,Medium,41.78940429998329,0.25,9.442,205
buysell_between25,25,Sell,3,High,104.61258439999074,0.25,3.702,205
buysell_between25,25,Sell,4,Low,10.764236799965147,0.45,5.798,205
buysell_between25,25,Sell,5,High,109.98023629997624,0.1,5.182,205
buysell_between25,25,Sell,6,Medium,42.603196699987166,0.1,4.092,205
buysell_between25,25,Sell,7,High,115.8423767000204,0.25,3.804,205
buysell_between25,25,Sell,8,Medium,42.171123299980536,0.45,4.432,205
buysell_between25,25,Sell,9,Low,9.51585799996974,0.45,6.836,205
buysell_between25,25,Sell,10,Medium,46.51507700001821,0.1,6.206,205
buysell_between25,25,Sell,11,Low,9.730924899980891,0.45,4.031,205
buysell_between25,25,Sell,12,High,109.48158560000593,0.75,4.458,205
buysell_between25,25,Sell,13,Medium,46.614742500009015,0.45,5.17,205
buysell_between25,25,Sell,14,High,114.06541229999857,0.1,3.742,205
buysell_between25,25,Sell,15,Low,16.994110699975863,0.45,8.225,205
buysell_between25,25,Sell,16,High,105.749335600005,0.25,3.818,205
buysell_between25,25,Sell,17,Low,15.229555500030983,0.25,3.975,205
buysell_between25,25,Sell,18,Medium,41.38479549996555,0.45,3.933,205
buysell_between26,26,Buy,1,Low,18.031084499962162,0.45,4.676,325
buysell_between26,26,Buy,2,Medium,42.12005109997699,0.75,4.565,325
buysell_between26,26,Buy,3,High,134.51946479995968,1,4.463,325
buysell_between26,26,Buy,4,Low,16.332760900026187,0.25,2.203,325
buysell_between26,26,Buy,5,High,138.97024949995102,0.45,5.607,325
buysell_between26,26,Buy,6,Medium,53.39748129999498,0.45,4.412,325
buysell_between26,26,Buy,7,High,147.63455160002923,0.75,4.354,325
buysell_between26,26,Buy,8,Medium,48.80179410002893,0.1,4.344,325
buysell_between26,26,Buy,9,Low,13.710007999965455,0.1,3.866,325
buysell_between26,26,Buy,10,Medium,49.99812579998979,0.25,4.454,325
buysell_between26,26,Buy,11,Low,16.25821719999658,0.1,6.082,325
buysell_between26,26,Buy,12,High,118.17985209997278,1,3.771,325
buysell_between26,26,Buy,13,Medium,45.94951870001387,0.45,2.623,325
buysell_between26,26,Buy,14,High,126.353480699996,0.75,2.446,325
buysell_between26,26,Buy,15,Low,20.228353199956473,0.25,4.457,325
buysell_between26,26,Buy,16,High,150.66485970001668,0.75,4.719,325
buysell_between26,26,Buy,17,Low,14.497055499989074,0.1,2.84,325
buysell_between26,26,Buy,18,Medium,55.329552299983334,0.45,2.454,325
buysell_between27,27,Sell,1,Low,52.20386170002166,0.45,2.528,245
buysell_between27,27,Sell,2,Medium,74.23147190001328,0.75,4.442,245
buysell_between27,27,Sell,3,High,157.87924989999738,0.75,4.049,245
buysell_between27,27,Sell,4,Low,22.214913200004958,0.25,2.264,245
buysell_between27,27,Sell,5,High,171.29082689993083,0.45,2.104,245
buysell_between27,27,Sell,6,Medium,52.73396970005706,0.45,1.784,245
buysell_between27,27,Sell,7,High,148.73397850000765,0.45,2.482,245
buysell_between27,27,Sell,8,Medium,67.42663390003145,0.45,2.687,245
buysell_between27,27,Sell,9,Low,24.19183350005187,0.25,0.785,245
buysell_between27,27,Sell,10,Medium,52.88222529995255,0.45,1.682,245
buysell_between27,27,Sell,11,Low,17.100431099999696,0.25,0.674,245
buysell_between27,27,Sell,12,High,146.29804109991528,0.75,6.059,245
buysell_between27,27,Sell,13,Medium,78.80754219996743,0.45,4.863,245
buysell_between27,27,Sell,14,High,170.77490479999688,0.45,3.37,245
buysell_between27,27,Sell,15,Low,22.990373899927363,0.25,3.885,245
buysell_between27,27,Sell,16,High,151.66492709994782,0.75,2.961,245
buysell_between27,27,Sell,17,Low,19.944000500021502,0.45,1.861,245
buysell_between27,27,Sell,18,Medium,65.86252399999648,0.45,1.792,245
buysell_between28,28,Buy,1,Low,18.16645769996103,0.1,10.192,230
buysell_between28,28,Buy,2,Medium,57.09747429995332,0.25,6.632,230
buysell_between28,28,Buy,3,High,178.0709688999923,0.45,10.175,230
buysell_between28,28,Buy,4,Low,28.195754199987277,0.1,5.722,230
buysell_between28,28,Buy,5,High,185.1341204000637,0.45,3.592,230
buysell_between28,28,Buy,6,Medium,77.33838309999555,0.25,6.771,230
buysell_between28,28,Buy,7,High,206.3923551000189,0.45,17.683,230
buysell_between28,28,Buy,8,Medium,79.52419020002708,0.1,6.727,230
buysell_between28,28,Buy,9,Low,33.60622750001494,0.1,1.098,230
buysell_between28,28,Buy,10,Medium,73.58947150001768,0.1,10.44,230
buysell_between28,28,Buy,11,Low,24.47714279999491,0.1,0.851,230
buysell_between28,28,Buy,12,High,228.00480499991681,0.45,7.551,230
buysell_between28,28,Buy,13,Medium,95.13737479993142,0.25,1.094,230
buysell_between28,28,Buy,14,High,248.77748070005327,0.45,17.93,230
buysell_between28,28,Buy,15,Low,35.68636519997381,0.1,0.988,230
buysell_between28,28,Buy,16,High,199.66166580002755,0.45,1.857,230
buysell_between28,28,Buy,17,Low,23.725250500021502,0.1,0.979,230
buysell_between28,28,Buy,18,Medium,83.90280899999198,0.25,1.456,230
buysell_between29,29,Buy,1,Low,39.13094569998793,0.45,2.523,225
buysell_between29,29,Buy,2,Medium,33.992063399986364,0.1,2.438,225
buysell_between29,29,Buy,3,High,162.99492309999187,0.1,2.924,225
buysell_between29,29,Buy,4,Low,16.299298100057058,0.25,0.84,225
buysell_between29,29,Buy,5,High,163.13061640004162,0.75,1.788,225
buysell_between29,29,Buy,6,Medium,77.27763399994001,0.1,1.174,225
buysell_between29,29,Buy,7,High,179.59076679998543,0.1,2.253,225
buysell_between29,29,Buy,8,Medium,79.02618070004974,0.1,3.136,225
buysell_between29,29,Buy,9,Low,15.06639749999158,0.45,1.753,225
buysell_between29,29,Buy,10,Medium,69.12955750001129,0.25,3.172,225
buysell_between29,29,Buy,11,Low,13.749983199988492,0.25,2.121,225
buysell_between29,29,Buy,12,High,173.52667570009362,0.1,2.75,225
buysell_between29,29,Buy,13,Medium,65.98103240004275,0.45,1.084,225
buysell_between29,29,Buy,14,High,192.67061779997312,0.75,0.723,225
buysell_between29,29,Buy,15,Low,22.596417199936695,0.75,2.189,225
buysell_between29,29,Buy,16,High,187.33735150005668,0.1,4.383,225
buysell_between29,29,Buy,17,Low,22.979604899999686,0.45,0.805,225
buysell_between29,29,Buy,18,Medium,76.47707320004702,0.45,1.305,225
buysell_between2,2,Sell,1,Low,35.010703699999794,0.25,7.24,255
buysell_between2,2,Sell,2,Medium,46.28698439999971,0.45,3.454,255
buysell_between2,2,Sell,3,High,118.7963151999993,0.75,3.801,255
buysell_between2,2,Sell,4,Low,30.799656099999993,0.1,5.323,255
buysell_between2,2,Sell,5,High,113.17851249999967,0.75,5.542,255
buysell_between2,2,Sell,6,Medium,40.83233079999991,0.25,4.005,255
buysell_between2,2,Sell,7,High,114.23733369999991,0.75,2.6,255
buysell_between2,2,Sell,8,Medium,44.99220140000034,0.25,3.853,255
buysell_between2,2,Sell,9,Low,19.765977600000042,0.1,2.886,255
buysell_between2,2,Sell,10,Medium,48.0630699000003,0.25,4.436,255
buysell_between2,2,Sell,11,Low,17.171092200000203,0.1,2.049,255
buysell_between2,2,Sell,12,High,109.55034709999927,0.75,2.5,255
buysell_between2,2,Sell,13,Medium,43.333132799999476,0.45,2.251,255
buysell_between2,2,Sell,14,High,114.27785680000034,1,2.01,255
buysell_between2,2,Sell,15,Low,13.940313799999785,0.1,1.515,255
buysell_between2,2,Sell,16,High,107.24236779999956,1,3.371,255
buysell_between2,2,Sell,17,Low,16.616284599999744,0.1,3.202,255
buysell_between2,2,Sell,18,Medium,42.13049409999985,0.45,3.203,255
buysell_between30,30,Sell,1,Low,15.217648499994539,0.25,5.896,465
buysell_between30,30,Sell,2,Medium,51.818295800010674,0.75,3.708,465
buysell_between30,30,Sell,3,High,145.68291760003194,1,4.877,465
buysell_between30,30,Sell,4,Low,23.9289495999692,0.25,2.697,465
buysell_between30,30,Sell,5,High,168.07431619998533,1,1.321,465
buysell_between30,30,Sell,6,Medium,79.60640799999237,0.75,2.608,465
buysell_between30,30,Sell,7,High,224.82317869993858,0.75,3.121,465
buysell_between30,30,Sell,8,Medium,63.14280270005111,0.25,4.855,465
buysell_between30,30,Sell,9,Low,25.2247517000651,0.1,1.866,465
buysell_between30,30,Sell,10,Medium,52.135408099973574,0.25,2.805,465
buysell_between30,30,Sell,11,Low,29.238984600058757,0.25,2.944,465
buysell_between30,30,Sell,12,High,19.629688100074418,0.25,6.708,465
buysell_between30,30,Sell,13,Medium,131.70370940002613,1,4.895,465
buysell_between30,30,Sell,14,High,61.56231269997079,1,2.719,465
buysell_between30,30,Sell,15,Low,145.44821029994637,1,4.449,465
buysell_between30,30,Sell,16,High,21.159834500052966,0.1,1.069,465
buysell_between30,30,Sell,17,Low,146.7810055000009,1,10.768,465
buysell_between30,30,Sell,18,Medium,21.676049800007604,0.1,1.576,465
buysell_between32,32,Sell,1,Low,16.732620399910957,0.1,1.91,305
buysell_between32,32,Sell,2,Medium,51.95409989997279,0.25,2.582,305
buysell_between32,32,Sell,3,High,111.33619189995807,0.75,1.948,305
buysell_between32,32,Sell,4,Low,14.936095000011846,0.1,2.122,305
buysell_between32,32,Sell,5,High,130.53870159992948,0.45,2.957,305
buysell_between32,32,Sell,6,Medium,46.88362739991862,0.25,2.784,305
buysell_between32,32,Sell,7,High,134.59864439989906,0.75,2.285,305
buysell_between32,32,Sell,8,Medium,45.47584430000279,0.75,9.654,305
buysell_between32,32,Sell,9,Low,18.096631399937905,0.1,3.259,305
buysell_between32,32,Sell,10,Medium,49.410629699938,1,1.126,305
buysell_between32,32,Sell,11,Low,25.4077840000391,0.75,1.839,305
buysell_between32,32,Sell,12,High,131.83366400003433,0.1,1.697,305
buysell_between32,32,Sell,13,Medium,62.27712749992497,0.1,2.049,305
buysell_between32,32,Sell,14,High,146.691996700014,1,2.04,305
buysell_between32,32,Sell,15,Low,5.736100200098008,0.75,4.498,305
buysell_between32,32,Sell,16,High,137.36301640002057,0.1,3.522,305
buysell_between32,32,Sell,17,Low,27.35119310009759,0.1,1.775,305
buysell_between32,32,Sell,18,Medium,51.724943100009114,0.1,2.026,305
buysell_between33,33,Buy,1,Low,20.297770299948752,0.75,15.035,275
buysell_between33,33,Buy,2,Medium,46.718213099986315,0.45,58.429,275
buysell_between33,33,Buy,3,High,117.79067109990865,0.1,23.343,275
buysell_between33,33,Buy,4,Low,15.393211800022982,0.25,24.914,275
buysell_between33,33,Buy,5,High,128.2578341999324,0.1,28.663,275
buysell_between33,33,Buy,6,Medium,37.58769030007534,0.25,47.243,275
buysell_between33,33,Buy,7,High,111.14458419999573,1,49.227,275
buysell_between33,33,Buy,8,Medium,56.59936089999974,0.1,21.887,275
buysell_between33,33,Buy,9,Low,17.1106482000323,0.75,23.858,275
buysell_between33,33,Buy,10,Medium,44.03662290005013,0.25,25.124,275
buysell_between33,33,Buy,11,Low,14.983502899995074,0.75,71.886,275
buysell_between33,33,Buy,12,High,125.04408030002378,0.45,44.708,275
buysell_between33,33,Buy,13,Medium,41.6062276000157,0.45,31.042,275
buysell_between33,33,Buy,14,High,113.6096966000041,0.25,44.63,275
buysell_between33,33,Buy,15,Low,20.426635600044392,0.75,48.378,275
buysell_between33,33,Buy,16,High,131.47019020002335,0.45,12.136,275
buysell_between33,33,Buy,17,Low,18.229620400001295,0.25,5.944,275
buysell_between33,33,Buy,18,Medium,45.52164250006899,1,81.229,275
buysell_between34,34,Sell,1,Low,30.095582300098613,0.25,10.094,260
buysell_between34,34,Sell,2,Medium,86.58928949991241,0.75,4.049,260
buysell_between34,34,Sell,3,High,203.77761770004872,0.75,5.395,260
buysell_between34,34,Sell,4,Low,45.482079199980944,0.45,4.802,260
buysell_between34,34,Sell,5,High,194.29792079993058,0.75,1.08,260
buysell_between34,34,Sell,6,Medium,86.25419169990346,0.75,3.705,260
buysell_between34,34,Sell,7,High,180.99088639998809,1,2.855,260
buysell_between34,34,Sell,8,Medium,83.47311310004443,0.75,1.464,260
buysell_between34,34,Sell,9,Low,36.569781200028956,0.45,0.787,260
buysell_between34,34,Sell,10,Medium,81.5206858998863,0.45,1.544,260
buysell_between34,34,Sell,11,Low,35.53791879990604,0.75,6.159,260
buysell_between34,34,Sell,12,High,186.65662959998008,0.75,1.005,260
buysell_between34,34,Sell,13,Medium,76.1097697999794,0.75,2.406,260
buysell_between34,34,Sell,14,High,202.49715730000753,0.75,0.706,260
buysell_between34,34,Sell,15,Low,25.97661680006422,0.45,0.956,260
buysell_between34,34,Sell,16,High,187.7327656999696,0.75,1.094,260
buysell_between34,34,Sell,17,Low,31.239304800052196,0.45,2.016,260
buysell_between34,34,Sell,18,Medium,62.61193979997188,0.75,3.316,260
buysell_between35,35,Buy,1,Low,24.030214500031434,0.25,5.357,550
buysell_between35,35,Buy,2,Medium,66.79500479996204,1,19.017,550
buysell_between35,35,Buy,3,High,179.91098660009447,1,6.796,550
buysell_between35,35,Buy,4,Low,29.6935784999514,0.1,7.082,550
buysell_between35,35,Buy,5,High,191.18428990000393,1,3.612,550
buysell_between35,35,Buy,6,Medium,81.90797079994809,0.45,4.74,550
buysell_between35,35,Buy,7,High,216.7081105997786,0.75,6.628,550
buysell_between35,35,Buy,8,Medium,72.02679669996724,0.45,7.455,550
buysell_between35,35,Buy,9,Low,28.34591139992699,0.1,6.381,550
buysell_between35,35,Buy,10,Medium,73.9067689999938,0.45,5.553,550
buysell_between35,35,Buy,11,Low,26.84142980002798,0.45,4.493,550
buysell_between35,35,Buy,12,High,185.27010970003903,1,4.077,550
buysell_between35,35,Buy,13,Medium,83.72357100015506,0.75,4.611,550
buysell_between35,35,Buy,14,High,183.76715059997514,1,4.425,550
buysell_between35,35,Buy,15,Low,31.024445899995044,0.25,7.878,550
buysell_between35,35,Buy,16,High,196.34759000013582,1,3.909,550
buysell_between35,35,Buy,17,Low,25.82708209985867,0.25,7.863,550
buysell_between35,35,Buy,18,Medium,65.81121170008555,1,3.565,550
buysell_between36,36,Sell,1,Low,21.6363317000214,0.75,5.117,260
buysell_between36,36,Sell,2,Medium,64.71514609997394,0.1,6.517,260
buysell_between36,36,Sell,3,High,175.3007775999722,0.75,7.707,260
buysell_between36,36,Sell,4,Low,21.144231699989177,0.1,4.892,260
buysell_between36,36,Sell,5,High,112.24736219999613,1,4.253,260
buysell_between36,36,Sell,6,Medium,55.283741699997336,0.45,2.516,260
buysell_between36,36,Sell,7,High,156.3977554999874,1,4.327,260
buysell_between36,36,Sell,8,Medium,58.98047700000461,0.45,2.437,260
buysell_between36,36,Sell,9,Low,21.017715899972245,1,2.524,260
buysell_between36,36,Sell,10,Medium,77.46402760001365,0.25,9.156,260
buysell_between36,36,Sell,11,Low,18.896832400001585,0.75,3.636,260
buysell_between36,36,Sell,12,High,154.83410939999158,0.75,6.176,260
buysell_between36,36,Sell,13,Medium,61.46706019999692,0.45,5.905,260
buysell_between36,36,Sell,14,High,187.71290669997688,1,5.385,260
buysell_between36,36,Sell,15,Low,24.29584849998355,1,8.061,260
buysell_between36,36,Sell,16,High,156.0810468000127,1,2.446,260
buysell_between36,36,Sell,17,Low,21.14601639995817,0.75,2.507,260
buysell_between36,36,Sell,18,Medium,50.03257629997097,0.25,4.73,260
buysell_between37,37,Buy,1,Low,18.16918110003462,0.75,2.005,240
buysell_between37,37,Buy,2,Medium,53.15434219996678,0.1,2.49,240
buysell_between37,37,Buy,3,High,137.4825325999991,0.1,4.668,240
buysell_between37,37,Buy,4,Low,17.713218400022015,1,5.252,240
buysell_between37,37,Buy,5,High,144.37368430005154,0.75,6.582,240
buysell_between37,37,Buy,6,Medium,55.563312500016764,0.45,4.585,240
buysell_between37,37,Buy,7,High,145.19756529998267,0.25,3.919,240
buysell_between37,37,Buy,8,Medium,49.99706539994804,0.75,3.944,240
buysell_between37,37,Buy,9,Low,21.963161499996204,0.45,7.568,240
buysell_between37,37,Buy,10,Medium,62.317780299985316,0.25,3.495,240
buysell_between37,37,Buy,11,Low,20.148418799974024,0.25,2.81,240
buysell_between37,37,Buy,12,High,143.85040950000985,0.45,7.524,240
buysell_between37,37,Buy,13,Medium,53.54768100002548,0.1,2.102,240
buysell_between37,37,Buy,14,High,146.0491733000381,0.25,4.178,240
buysell_between37,37,Buy,15,Low,18.6797139000264,1,2.427,240
buysell_between37,37,Buy,16,High,132.5010053999722,0.45,4.232,240
buysell_between37,37,Buy,17,Low,21.66498230001889,0.75,3.509,240
buysell_between37,37,Buy,18,Medium,60.1180399999721,0.1,3.61,240
buysell_between38,38,Sell,1,Low,27.477923900005408,0.75,5.356,365
buysell_between38,38,Sell,2,Medium,65.2886404999299,0.45,7.656,365
buysell_between38,38,Sell,3,High,159.56953069998417,1,10.038,365
buysell_between38,38,Sell,4,Low,23.104374399990775,0.75,6.671,365
buysell_between38,38,Sell,5,High,198.2879866999574,0.75,15.337,365
buysell_between38,38,Sell,6,Medium,62.28786309994757,0.75,11.106,365
buysell_between38,38,Sell,7,High,163.187414099928,0.75,8.255,365
buysell_between38,38,Sell,8,Medium,67.45309009996708,0.45,7.039,365
buysell_between38,38,Sell,9,Low,23.204048700048588,0.25,5.638,365
buysell_between38,38,Sell,10,Medium,64.72083390003536,0.75,10.206,365
buysell_between38,38,Sell,11,Low,25.755443699890748,0.25,5.406,365
buysell_between38,38,Sell,12,High,179.6543299999321,0.75,7.972,365
buysell_between38,38,Sell,13,Medium,64.1379644999979,0.45,6.122,365
buysell_between38,38,Sell,14,High,170.77165989996865,0.75,9.622,365
buysell_between38,38,Sell,15,Low,25.703420499921776,0.75,4.639,365
buysell_between38,38,Sell,16,High,175.1540787999984,1,8.888,365
buysell_between38,38,Sell,17,Low,26.22165209997911,0.25,2.055,365
buysell_between38,38,Sell,18,Medium,71.25510770000983,0.45,7.456,365
buysell_between39,39,Sell,1,Low,17.36151419999078,0.1,2.523,340
buysell_between39,39,Sell,2,Medium,57.32149829994887,1,2.341,340
buysell_between39,39,Sell,3,High,146.86966729990672,0.75,2.705,340
buysell_between39,39,Sell,4,Low,19.587196800042875,0.1,1.556,340
buysell_between39,39,Sell,5,High,141.08774679992348,0.45,0.971,340
buysell_between39,39,Sell,6,Medium,52.62155360006727,0.25,3.139,340
buysell_between39,39,Sell,7,High,139.57108729996253,0.75,3.589,340
buysell_between39,39,Sell,8,Medium,53.92114820005372,0.25,3.288,340
buysell_between39,39,Sell,9,Low,19.104632699978538,0.25,1.039,340
buysell_between39,39,Sell,10,Medium,54.88776379998308,0.45,5.457,340
buysell_between39,39,Sell,11,Low,18.788172299973667,0.25,5.272,340
buysell_between39,39,Sell,12,High,140.27149259997532,0.75,2.822,340
buysell_between39,39,Sell,13,Medium,47.23764039995149,0.45,4.538,340
buysell_between39,39,Sell,14,High,136.13842540001497,1,0.872,340
buysell_between39,39,Sell,15,Low,16.304616200039163,0.1,2.023,340
buysell_between39,39,Sell,16,High,135.28888080001343,0.45,5.821,340
buysell_between39,39,Sell,17,Low,22.18843699991703,0.1,1.089,340
buysell_between39,39,Sell,18,Medium,54.98772919992916,0.45,7.972,340
buysell_between3,3,Buy,1,Low,22.930733900000178,0.75,1.071,345
buysell_between3,3,Buy,2,Medium,83.13648120000016,0.25,4.702,345
buysell_between3,3,Buy,3,High,201.13014889999977,0.1,3.053,345
buysell_between3,3,Buy,4,Low,28.710541100000228,0.75,1.958,345
buysell_between3,3,Buy,5,High,217.9841110999996,0.1,3.872,345
buysell_between3,3,Buy,6,Medium,88.6592029999997,0.25,2.679,345
buysell_between3,3,Buy,7,High,246.84210910000002,0.45,1.732,345
buysell_between3,3,Buy,8,Medium,104.22308769999972,0.45,1.266,345
buysell_between3,3,Buy,9,Low,22.486430299999938,0.75,1.564,345
buysell_between3,3,Buy,10,Medium,68.63359749999972,0.45,12.759,345
buysell_between3,3,Buy,11,Low,17.985853399999996,0.75,1.992,345
buysell_between3,3,Buy,12,High,226.98603030000004,0.45,1.038,345
buysell_between3,3,Buy,13,Medium,100.5850876999998,0.45,1.362,345
buysell_between3,3,Buy,14,High,268.8827099,0.45,1.057,345
buysell_between3,3,Buy,15,Low,32.447827699999834,0.45,0.568,345
buysell_between3,3,Buy,16,High,273.5979712999997,0.45,0.51,345
buysell_between3,3,Buy,17,Low,30.76049899999998,0.75,0.781,345
buysell_between3,3,Buy,18,Medium,67.67706859999998,0.75,2.768,345
buysell_between40,40,Buy,1,Low,23.161241300054826,0.1,3.289,155
buysell_between40,40,Buy,2,Medium,96.5552298000548,0.1,4.389,155
buysell_between40,40,Buy,3,High,225.62011540005915,0.1,2.889,155
buysell_between40,40,Buy,4,Low,33.47092039999552,0.1,3.022,155
buysell_between40,40,Buy,5,High,248.7216252000071,0.1,2.787,155
buysell_between40,40,Buy,6,Medium,98.90398750000168,0.1,2.738,155
buysell_between40,40,Buy,7,High,261.68813140003476,0.1,1.438,155
buysell_between40,40,Buy,8,Medium,107.07091969996691,0.1,2.422,155
buysell_between40,40,Buy,9,Low,34.6381128000794,0.1,2.239,155
buysell_between40,40,Buy,10,Medium,88.68801990000065,0.1,7.838,155
buysell_between40,40,Buy,11,Low,37.322299399995245,0.1,2.689,155
buysell_between40,40,Buy,12,High,287.05552769999485,0.1,2.806,155
buysell_between40,40,Buy,13,Medium,135.23747129994445,0.1,2.872,155
buysell_between40,40,Buy,14,High,363.1212907000445,0.1,2.771,155
buysell_between40,40,Buy,15,Low,44.95400759996846,0.1,2.089,155
buysell_between40,40,Buy,16,High,388.6372276999755,0.1,2.487,155
buysell_between40,40,Buy,17,Low,42.63732919993345,0.1,2.805,155
buysell_between40,40,Buy,18,Medium,97.55485909990966,0.1,2.056,155
buysell_between41,41,Buy,1,Low,28.58797069999855,0.1,5.102,380
buysell_between41,41,Buy,2,Medium,87.41815380007029,0.25,12.118,380
buysell_between41,41,Buy,3,High,196.30043449997902,0.45,5.707,380
buysell_between41,41,Buy,4,Low,21.062659300048836,0.1,2.32,380
buysell_between41,41,Buy,5,High,177.8303621999221,0.25,6.634,380
buysell_between41,41,Buy,6,Medium,73.2774065999547,0.25,3.809,380
buysell_between41,41,Buy,7,High,192.70149229990784,0.45,1.294,380
buysell_between41,41,Buy,8,Medium,85.94562260003295,0.1,47.878,380
buysell_between41,41,Buy,9,Low,25.86849839997012,0.1,5.84,380
buysell_between41,41,Buy,10,Medium,87.03325919993222,0.25,23.275,380
buysell_between41,41,Buy,11,Low,21.499137000064366,0.1,1.533,380
buysell_between41,41,Buy,12,High,220.95087609998882,0.25,3.638,380
buysell_between41,41,Buy,13,Medium,91.76342129998375,0.1,3.143,380
buysell_between41,41,Buy,14,High,204.98277800006326,0.25,10.365,380
buysell_between41,41,Buy,15,Low,18.427604499971494,0.1,5.165,380
buysell_between41,41,Buy,16,High,238.0465234000003,0.25,3.623,380
buysell_between41,41,Buy,17,Low,27.684446800034493,0.1,2.438,380
buysell_between41,41,Buy,18,Medium,74.03457899997011,0.1,6.507,380
buysell_between43,43,Buy,1,Low,22.37240120000206,0.1,2.427,360
buysell_between43,43,Buy,2,Medium,47.12909840000793,0.1,7.14,360
buysell_between43,43,Buy,3,High,133.46242869994603,0.45,1.995,360
buysell_between43,43,Buy,4,Low,21.26254060002975,0.45,1.195,360
buysell_between43,43,Buy,5,High,127.03169849992264,0.25,8.355,360
buysell_between43,43,Buy,6,Medium,61.49760939995758,0.25,3.231,360
buysell_between43,43,Buy,7,High,130.41321300005075,0.45,6.452,360
buysell_between43,43,Buy,8,Medium,57.61814199993387,0.25,2.248,360
buysell_between43,43,Buy,9,Low,21.633497199974954,0.75,0.874,360
buysell_between43,43,Buy,10,Medium,58.868598100030795,0.45,5.545,360
buysell_between43,43,Buy,11,Low,20.669341700035147,0.1,1.354,360
buysell_between43,43,Buy,12,High,138.25243240001146,1,5.21,360
buysell_between43,43,Buy,13,Medium,49.51857800001744,0.1,3.98,360
buysell_between43,43,Buy,14,High,141.39752809994388,0.1,3.703,360
buysell_between43,43,Buy,15,Low,21.66273950005416,1,0.865,360
buysell_between43,43,Buy,16,High,133.11687549995258,0.1,3.037,360
buysell_between43,43,Buy,17,Low,24.960996400099248,0.25,1.414,360
buysell_between43,43,Buy,18,Medium,52.65239429997746,0.1,1.572,360
buysell_between44,44,Sell,1,Low,21.807680600000822,0.1,2.971,395
buysell_between44,44,Sell,2,Medium,61.694182700000056,0.45,1.856,395
buysell_between44,44,Sell,3,High,134.3348821999998,0.75,2.661,395
buysell_between44,44,Sell,4,Low,21.144432100000813,0.1,2.899,395
buysell_between44,44,Sell,5,High,142.66884109999955,1,5.04,395
buysell_between44,44,Sell,6,Medium,62.77666539999973,0.45,0.971,395
buysell_between44,44,Sell,7,High,141.28468840000005,0.75,3.176,395
buysell_between44,44,Sell,8,Medium,77.68489890000001,0.25,2.852,395
buysell_between44,44,Sell,9,Low,31.35655829999996,0.1,1.817,395
buysell_between44,44,Sell,10,Medium,69.08502269999917,0.45,1.502,395
buysell_between44,44,Sell,11,Low,20.912343099999816,0.1,1.517,395
buysell_between44,44,Sell,12,High,142.0371181999999,0.75,13.129,395
buysell_between44,44,Sell,13,Medium,78.3685174000002,0.45,2.334,395
buysell_between44,44,Sell,14,High,153.4841263999997,0.75,3.326,395
buysell_between44,44,Sell,15,Low,28.510062800000014,0.1,1.688,395
buysell_between44,44,Sell,16,High,208.94963559999997,1,2.074,395
buysell_between44,44,Sell,17,Low,42.9196280999995,0.25,1.537,395
buysell_between44,44,Sell,18,Medium,98.14655949999997,0.75,2.332,395
buysell_between45,45,Sell,1,Low,20.17784380000012,0.25,6.524,95
buysell_between45,45,Sell,2,Medium,62.483818199999405,0.45,5.251,95
buysell_between45,45,Sell,3,High,116.76355619999958,0.1,2.413,95
buysell_between45,45,Sell,4,Low,14.029338599999392,0.1,1.867,95
buysell_between45,45,Sell,5,High,117.72514500000034,0.75,4.633,95
buysell_between45,45,Sell,6,Medium,41.418590100000074,0.25,5.856,95
buysell_between45,45,Sell,7,High,109.894945,0.1,1.217,95
buysell_between45,45,Sell,8,Medium,41.27190520000022,0.45,2.816,95
buysell_between45,45,Sell,9,Low,17.846012100000735,0.75,2.97,95
buysell_between45,45,Sell,10,Medium,45.9819636000002,0.1,1.37,95
buysell_between45,45,Sell,11,Low,30.647684300000037,0.25,1.54,95
buysell_between45,45,Sell,12,High,99.73561659999996,0.1,4.424,95
buysell_between45,45,Sell,13,Medium,39.84655080000084,0.1,1.21,95
buysell_between45,45,Sell,14,High,114.64423830000123,0.25,1.276,95
buysell_between45,45,Sell,15,Low,25.985650599999644,0.1,2.218,95
buysell_between45,45,Sell,16,High,122.98465609999948,0.1,1.557,95
buysell_between45,45,Sell,17,Low,19.36850609999965,0.1,1.859,95
buysell_between45,45,Sell,18,Medium,47.83678679999866,0.1,2.828,95
buysell_between46,46,Sell,1,Low,24.13683819997823,0.75,5.936,345
buysell_between46,46,Sell,2,Medium,62.4164045000216,1,11.579,345
buysell_between46,46,Sell,3,High,168.73254329996416,0.25,5.626,345
buysell_between46,46,Sell,4,Low,21.344925899989903,0.45,2.193,345
buysell_between46,46,Sell,5,High,159.55083949997788,0.25,5.813,345
buysell_between46,46,Sell,6,Medium,90.3045905000181,0.1,2.273,345
buysell_between46,46,Sell,7,High,219.63319739996223,0.1,2.79,345
buysell_between46,46,Sell,8,Medium,80.84992830001283,0.1,3.54,345
buysell_between46,46,Sell,9,Low,24.15014570002677,0.45,2.017,345
buysell_between46,46,Sell,10,Medium,84.34780180000234,0.25,4.242,345
buysell_between46,46,Sell,11,Low,23.19602339999983,0.45,6.184,345
buysell_between46,46,Sell,12,High,201.76691599999322,0.25,6.895,345
buysell_between46,46,Sell,13,Medium,90.76652619999368,0.75,2.695,345
buysell_between46,46,Sell,14,High,207.46786239999346,0.25,3.894,345
buysell_between46,46,Sell,15,Low,32.08278210001299,0.75,6.695,345
buysell_between46,46,Sell,16,High,232.7633340000175,0.25,3.309,345
buysell_between46,46,Sell,17,Low,27.945318699989002,0.45,2.876,345
buysell_between46,46,Sell,18,Medium,62.26574669999536,0.45,3.044,345
buysell_between47,47,Sell,1,Low,23.870082499983255,0.25,4.343,360
buysell_between47,47,Sell,2,Medium,61.9169327999698,0.75,0.904,360
buysell_between47,47,Sell,3,High,152.6659317999729,1,4.321,360
buysell_between47,47,Sell,4,Low,19.54895220004255,0.1,3.498,360
buysell_between47,47,Sell,5,High,166.59316899999976,1,5.92,360
buysell_between47,47,Sell,6,Medium,60.029621299996506,0.45,2.428,360
buysell_between47,47,Sell,7,High,167.10132950003026,0.75,3.124,360
buysell_between47,47,Sell,8,Medium,59.7955171999638,0.45,7.046,360
buysell_between47,47,Sell,9,Low,22.098502500040922,0.1,2.282,360
buysell_between47,47,Sell,10,Medium,59.665642700041644,0.45,1.619,360
buysell_between47,47,Sell,11,Low,20.13296509999782,0.25,1.403,360
buysell_between47,47,Sell,12,High,156.6986697000102,0.75,1.024,360
buysell_between47,47,Sell,13,Medium,58.49615979997907,0.45,7.261,360
buysell_between47,47,Sell,14,High,169.05079369997839,0.45,10.744,360
buysell_between47,47,Sell,15,Low,25.03419389994815,0.1,1.234,360
buysell_between47,47,Sell,16,High,154.36700570001267,0.75,8.564,360
buysell_between47,47,Sell,17,Low,21.944759700039867,0.1,1.69,360
buysell_between47,47,Sell,18,Medium,69.81309449998662,0.45,2.931,360
buysell_between48,48,Sell,1,Low,31.188100099971052,0.1,6.807,260
buysell_between48,48,Sell,2,Medium,66.3843460000353,0.25,3.401,260
buysell_between48,48,Sell,3,High,196.4528090999811,0.75,2.882,260
buysell_between48,48,Sell,4,Low,21.249677099986002,0.25,4.56,260
buysell_between48,48,Sell,5,High,191.93562430003658,0.45,4.27,260
buysell_between48,48,Sell,6,Medium,73.29773829999613,0.45,3.916,260
buysell_between48,48,Sell,7,High,196.78203820000635,0.75,9.704,260
buysell_between48,48,Sell,8,Medium,82.33109499997227,0.25,2.621,260
buysell_between48,48,Sell,9,Low,29.980602100025862,0.25,2.636,260
buysell_between48,48,Sell,10,Medium,75.04937459999928,0.45,1.511,260
buysell_between48,48,Sell,11,Low,26.414900900039356,0.45,5.028,260
buysell_between48,48,Sell,12,High,187.04844809998758,1,2.717,260
buysell_between48,48,Sell,13,Medium,77.09663899999578,1,6.129,260
buysell_between48,48,Sell,14,High,221.9139911000384,1,4.952,260
buysell_between48,48,Sell,15,Low,40.733645700034685,0.45,1.251,260
buysell_between48,48,Sell,16,High,226.69840860000113,1,6.128,260
buysell_between48,48,Sell,17,Low,48.98053980001714,0.45,2.06,260
buysell_between48,48,Sell,18,Medium,80.69867830001749,0.45,1.683,260
buysell_between49,49,Sell,1,Low,16.754557500011288,0.25,6.285,390
buysell_between49,49,Sell,2,Medium,38.748912399983965,0.45,5.124,390
buysell_between49,49,Sell,3,High,110.08287590002874,0.75,5.645,390
buysell_between49,49,Sell,4,Low,14.012364299967885,0.75,1.433,390
buysell_between49,49,Sell,5,High,119.76383069995791,0.45,3.37,390
buysell_between49,49,Sell,6,Medium,45.37869189999765,0.75,3.209,390
buysell_between49,49,Sell,7,High,123.23383689997718,0.75,2.669,390
buysell_between49,49,Sell,8,Medium,40.91596600000048,0.1,2.439,390
buysell_between49,49,Sell,9,Low,15.951313199999277,0.25,2.186,390
buysell_between49,49,Sell,10,Medium,40.6294941000524,0.45,2.66,390
buysell_between49,49,Sell,11,Low,17.04801630001748,1,3.054,390
buysell_between49,49,Sell,12,High,109.16775020002387,0.75,8.217,390
buysell_between49,49,Sell,13,Medium,43.6673063999624,0.75,3.463,390
buysell_between49,49,Sell,14,High,118.09742679999908,0.25,2.573,390
buysell_between49,49,Sell,15,Low,17.84803670004476,0.1,1.303,390
buysell_between49,49,Sell,16,High,122.59724780003307,0.45,1.822,390
buysell_between49,49,Sell,17,Low,19.264851699990686,0.75,2.674,390
buysell_between49,49,Sell,18,Medium,49.88418210000964,0.25,2.654,390
buysell_between4,4,Buy,1,Low,18.653304899999966,0.75,2.392,365
buysell_between4,4,Buy,2,Medium,45.62301580000076,1,3.123,365
buysell_between4,4,Buy,3,High,122.52070000000003,0.25,5.012,365
buysell_between4,4,Buy,4,Low,16.903627499999857,0.75,3.446,365
buysell_between4,4,Buy,5,High,121.3318605000004,0.45,2.003,365
buysell_between4,4,Buy,6,Medium,50.04535879999912,0.75,3.904,365
buysell_between4,4,Buy,7,High,129.86712410000018,0.25,2.892,365
buysell_between4,4,Buy,8,Medium,48.428339799999776,0.25,3.166,365
buysell_between4,4,Buy,9,Low,16.733314099999916,1,2.4,365
buysell_between4,4,Buy,10,Medium,44.048789899999974,0.75,1.63,365
buysell_between4,4,Buy,11,Low,15.37444349999987,0.25,1.792,365
buysell_between4,4,Buy,12,High,121.0366952000004,0.75,2.86,365
buysell_between4,4,Buy,13,Medium,48.61160899999959,0.45,4.342,365
buysell_between4,4,Buy,14,High,128.00426470000002,0.25,2.078,365
buysell_between4,4,Buy,15,Low,19.25306509999973,0.75,1.577,365
buysell_between4,4,Buy,16,High,124.87447790000078,0.1,1.173,365
buysell_between4,4,Buy,17,Low,20.804201699999794,0.75,2.569,365
buysell_between4,4,Buy,18,Medium,47.04492630000004,1,1.533,365
buysell_between50,50,Buy,1,Low,18.489754699985497,0.75,4.451,205
buysell_between50,50,Buy,2,Medium,60.95585659996141,1,3.595,205
buysell_between50,50,Buy,3,High,160.3002492999658,0.25,3.638,205
buysell_between50,50,Buy,4,Low,16.402263000025414,0.75,3.476,205
buysell_between50,50,Buy,5,High,162.21920549997594,1,3.66,205
buysell_between50,50,Buy,6,Medium,69.61414239997976,0.75,3.204,205
buysell_between50,50,Buy,7,High,183.24751720001223,0.75,7.507,205
buysell_between50,50,Buy,8,Medium,66.26388189999852,1,4.01,205
buysell_between50,50,Buy,9,Low,17.964140700001735,0.45,1.614,205
buysell_between50,50,Buy,10,Medium,63.572404300037306,0.25,2.607,205
buysell_between50,50,Buy,11,Low,22.35176460002549,0.75,0.851,205
buysell_between50,50,Buy,12,High,175.48058809997747,0.1,2.521,205
buysell_between50,50,Buy,13,Medium,73.76857199997175,0.45,2.207,205
buysell_between50,50,Buy,14,High,216.71426300000167,1,2.977,205
buysell_between50,50,Buy,15,Low,24.747913900006097,0.75,2.671,205
buysell_between50,50,Buy,16,High,203.24839339999016,1,2.947,205
buysell_between50,50,Buy,17,Low,25.268374699982814,0.45,0.746,205
buysell_between50,50,Buy,18,Medium,75.50216780003393,1,1.634,205
buysell_between52,52,Buy,1,Low,22.3552553000045,0.25,12.877,225
buysell_between52,52,Buy,2,Medium,57.61525289999554,0.75,5.609,225
buysell_between52,52,Buy,3,High,142.14484470000025,1,4.514,225
buysell_between52,52,Buy,4,Low,19.496726699988358,0.75,8.792,225
buysell_between52,52,Buy,5,High,140.56767640000908,1,3.047,225
buysell_between52,52,Buy,6,Medium,55.06510489998618,0.25,10.809,225
buysell_between52,52,Buy,7,High,137.01406999997562,0.75,5.098,225
buysell_between52,52,Buy,8,Medium,54.56433269998524,0.45,1.581,225
buysell_between52,52,Buy,9,Low,25.548704899963923,0.1,4.294,225
buysell_between52,52,Buy,10,Medium,52.69730319996597,0.75,4.639,225
buysell_between52,52,Buy,11,Low,27.897967000026256,0.25,6.7,225
buysell_between52,52,Buy,12,High,129.38614319998305,1,4.705,225
buysell_between52,52,Buy,13,Medium,52.583583600004204,0.75,5.682,225
buysell_between52,52,Buy,14,High,136.64942879998125,1,3.372,225
buysell_between52,52,Buy,15,Low,19.43141210003523,0.45,7.205,225
buysell_between52,52,Buy,16,High,138.78213000000687,0.75,2.719,225
buysell_between52,52,Buy,17,Low,19.88180079997983,0.1,4.412,225
buysell_between52,52,Buy,18,Medium,57.198480000020936,0.45,2.988,225
buysell_between53,53,Sell,1,Low,20.27075160003733,0.25,7.544,255
buysell_between53,53,Sell,2,Medium,50.18031680001877,0.25,2.996,255
buysell_between53,53,Sell,3,High,129.5336100999848,0.25,2.022,255
buysell_between53,53,Sell,4,Low,18.410673500038683,0.25,1.823,255
buysell_between53,53,Sell,5,High,128.62825210002484,0.25,2.508,255
buysell_between53,53,Sell,6,Medium,52.48109040001873,0.25,0.943,255
buysell_between53,53,Sell,7,High,356.26272330002394,0.45,4.692,255
buysell_between53,53,Sell,8,Medium,41.67875149997417,0.45,2.689,255
buysell_between53,53,Sell,9,Low,16.545143500028644,0.45,3.327,255
buysell_between53,53,Sell,10,Medium,44.04399929998908,0.45,1.371,255
buysell_between53,53,Sell,11,Low,14.695760799979325,0.45,2.963,255
buysell_between53,53,Sell,12,High,105.27919889998157,0.45,2.127,255
buysell_between53,53,Sell,13,Medium,27.733310500043444,0.45,0.759,255
buysell_between53,53,Sell,14,High,123.54520150000462,0.45,1.006,255
buysell_between53,53,Sell,15,Low,11.89564750000136,0.45,1.693,255
buysell_between53,53,Sell,16,High,112.4614089000388,0.45,1.828,255
buysell_between53,53,Sell,17,Low,14.134090400009882,0.45,0.843,255
buysell_between53,53,Sell,18,Medium,38.660625600023195,0.45,1.259,255
buysell_between54,54,Sell,1,Low,20.957951800000046,0.25,12.561,350
buysell_between54,54,Sell,2,Medium,52.15080630000011,0.75,3.255,350
buysell_between54,54,Sell,3,High,133.5177759000003,1,13.838,350
buysell_between54,54,Sell,4,Low,23.892629500000112,0.25,13.864,350
buysell_between54,54,Sell,5,High,155.7173729000001,0.75,16.165,350
buysell_between54,54,Sell,6,Medium,56.43218049999996,0.25,2.921,350
buysell_between54,54,Sell,7,High,142.34167070000012,0.75,6.111,350
buysell_between54,54,Sell,8,Medium,67.35962240000026,0.45,4.44,350
buysell_between54,54,Sell,9,Low,22.16349390000005,0.1,6.911,350
buysell_between54,54,Sell,10,Medium,55.65033170000015,0.25,8.749,350
buysell_between54,54,Sell,11,Low,18.188579799999843,0.1,4.696,350
buysell_between54,54,Sell,12,High,130.5170793000002,1,7.663,350
buysell_between54,54,Sell,13,Medium,59.07572310000023,0.45,6.349,350
buysell_between54,54,Sell,14,High,134.36203290000003,1,11.362,350
buysell_between54,54,Sell,15,Low,21.471001299999898,0.1,2.233,350
buysell_between54,54,Sell,16,High,139.14938359999996,0.75,4.424,350
buysell_between54,54,Sell,17,Low,17.51442119999956,0.1,2.276,350
buysell_between54,54,Sell,18,Medium,55.735774299999775,0.45,1.364,350
buysell_between55,55,Buy,1,Low,27.959015200000067,0.45,5.061,310
buysell_between55,55,Buy,2,Medium,68.73069440000108,0.75,4.706,310
buysell_between55,55,Buy,3,High,206.3330117000005,1,4.207,310
buysell_between55,55,Buy,4,Low,22.04651019999983,0.75,3.022,310
buysell_between55,55,Buy,5,High,208.58195410000008,0.45,5.17,310
buysell_between55,55,Buy,6,Medium,67.51674769999954,0.75,4.162,310
buysell_between55,55,Buy,7,High,215.2940992999993,1,1.815,310
buysell_between55,55,Buy,8,Medium,91.03553849999844,0.75,5.283,310
buysell_between55,55,Buy,9,Low,27.31369160000031,0.25,1.235,310
buysell_between55,55,Buy,10,Medium,69.66773040000044,0.75,2.712,310
buysell_between55,55,Buy,11,Low,23.595360899998923,0.75,2.646,310
buysell_between55,55,Buy,12,High,211.92951689999973,1,1.369,310
buysell_between55,55,Buy,13,Medium,81.76851220000026,0.75,3.628,310
buysell_between55,55,Buy,14,High,220.42814540000109,0.75,4.985,310
buysell_between55,55,Buy,15,Low,34.34456669999963,0.45,2.669,310
buysell_between55,55,Buy,16,High,243.0166047999992,0.75,1.91,310
buysell_between55,55,Buy,17,Low,26.27103679999891,0.45,5.219,310
buysell_between55,55,Buy,18,Medium,98.4044543,0.75,3.291,310
buysell_between56,56,Buy,1,Low,21.603151800001797,0.25,5.805,265
buysell_between56,56,Buy,2,Medium,53.89867709999817,0.25,4.562,265
buysell_between56,56,Buy,3,High,138.60849479999888,0.25,4.719,265
buysell_between56,56,Buy,4,Low,15.72874260000026,0.1,6.213,265
buysell_between56,56,Buy,5,High,141.70096209999974,0.1,3.012,265
buysell_between56,56,Buy,6,Medium,57.29654649999793,0.45,2.566,265
buysell_between56,56,Buy,7,High,139.14686299999812,0.25,4.768,265
buysell_between56,56,Buy,8,Medium,49.20925290000014,0.45,1.32,265
buysell_between56,56,Buy,9,Low,16.799475699997856,0.25,9.123,265
buysell_between56,56,Buy,10,Medium,52.083300500002224,0.75,6.677,265
buysell_between56,56,Buy,11,Low,17.517778600002202,0.1,5.189,265
buysell_between56,56,Buy,12,High,130.81597989999864,0.25,4.191,265
buysell_between56,56,Buy,13,Medium,54.9037453000019,0.45,1.979,265
buysell_between56,56,Buy,14,High,135.94763100000273,0.45,1.882,265
buysell_between56,56,Buy,15,Low,20.478491000001668,0.25,4.227,265
buysell_between56,56,Buy,16,High,163.66696109999975,0.25,4.432,265
buysell_between56,56,Buy,17,Low,20.213145100002293,0.75,8.652,265
buysell_between56,56,Buy,18,Medium,52.79959980000058,0.25,2.357,265
buysell_between57,57,Buy,1,Low,16.93815010000253,0.25,30.45,150
buysell_between57,57,Buy,2,Medium,45.44989109999733,0.45,14.704,150
buysell_between57,57,Buy,3,High,130.68375569999625,1,7.31,150
buysell_between57,57,Buy,4,Low,16.913506899989443,0.45,7.184,150
buysell_between57,57,Buy,5,High,128.57913149999513,0.75,11.958,150
buysell_between57,57,Buy,6,Medium,48.78079350000189,1,6.474,150
buysell_between57,57,Buy,7,High,132.3616156999924,0.1,6.879,150
buysell_between57,57,Buy,8,Medium,49.311661399988225,0.25,3.377,150
buysell_between57,57,Buy,9,Low,18.280377000002773,0.75,4.395,150
buysell_between57,57,Buy,10,Medium,53.76420779999171,0.25,38.254,150
buysell_between57,57,Buy,11,Low,17.501772500007064,0.45,5.127,150
buysell_between57,57,Buy,12,High,127.01781710000068,0.1,9.406,150
buysell_between57,57,Buy,13,Medium,41.960946699997294,0.45,1.749,150
buysell_between57,57,Buy,14,High,133.37896299999557,1,11.812,150
buysell_between57,57,Buy,15,Low,24.03426980000222,0.75,6.24,150
buysell_between57,57,Buy,16,High,134.0505884000013,0.25,8.359,150
buysell_between57,57,Buy,17,Low,18.664907900005346,1,4.16,150
buysell_between57,57,Buy,18,Medium,54.21482649999962,0.1,39.006,150
buysell_between58,58,Buy,1,Low,32.571487799999886,0.45,8.808,145
buysell_between58,58,Buy,2,Medium,82.49884250000468,0.75,2.714,145
buysell_between58,58,Buy,3,High,225.5626040000061,1,13.974,145
buysell_between58,58,Buy,4,Low,33.1164434000093,0.25,7.285,145
buysell_between58,58,Buy,5,High,219.2650525999925,1,15.096,145
buysell_between58,58,Buy,6,Medium,86.08605500000704,0.75,10.616,145
buysell_between58,58,Buy,7,High,204.10140230000252,1,12.826,145
buysell_between58,58,Buy,8,Medium,80.9333375999995,0.75,100.564,145
buysell_between58,58,Buy,9,Low,29.23452240000188,0.1,5.761,145
buysell_between58,58,Buy,10,Medium,76.31761169999663,0.45,7.338,145
buysell_between58,58,Buy,11,Low,32.61428750000778,0.1,30.65,145
buysell_between58,58,Buy,12,High,211.08013560000109,0.75,12.211,145
buysell_between58,58,Buy,13,Medium,76.28630619999603,0.75,3.489,145
buysell_between58,58,Buy,14,High,207.363517699996,1,6.493,145
buysell_between58,58,Buy,15,Low,29.34916379999777,0.25,3.345,145
buysell_between58,58,Buy,16,High,194.28045560000464,1,3.16,145
buysell_between58,58,Buy,17,Low,41.696200799997314,0.25,9.075,145
buysell_between58,58,Buy,18,Medium,78.03168290000758,0.45,3.351,145
buysell_between59,59,Buy,1,Low,18.069685900001787,0.75,2.295,250
buysell_between59,59,Buy,2,Medium,56.0810141999973,0.45,1.623,250
buysell_between59,59,Buy,3,High,171.36730690000695,0.25,1.842,250
buysell_between59,59,Buy,4,Low,25.37895959999878,0.75,1.934,250
buysell_between59,59,Buy,5,High,150.2146267000062,0.1,2.371,250
buysell_between59,59,Buy,6,Medium,59.7853013999993,0.45,1.904,250
buysell_between59,59,Buy,7,High,161.33012359999702,0.75,2.561,250
buysell_between59,59,Buy,8,Medium,69.19369670000742,0.25,2.476,250
buysell_between59,59,Buy,9,Low,31.71273339999607,0.75,0.934,250
buysell_between59,59,Buy,10,Medium,56.26946169999428,1,2.051,250
buysell_between59,59,Buy,11,Low,20.537625700002536,0.1,1.889,250
buysell_between59,59,Buy,12,High,158.03418349998537,0.45,2.235,250
buysell_between59,59,Buy,13,Medium,53.19608059999882,0.45,1.704,250
buysell_between59,59,Buy,14,High,136.8808474999969,0.75,2.023,250
buysell_between59,59,Buy,15,Low,19.313459700002568,0.75,3.976,250
buysell_between59,59,Buy,16,High,149.89560640000855,0.25,1.426,250
buysell_between59,59,Buy,17,Low,20.348106399993412,0.25,2.174,250
buysell_between5,5,Buy,1,Low,24.3354589999999,0.45,6.972,195
buysell_between5,5,Buy,2,Medium,56.07846640000025,0.1,4.138,195
buysell_between5,5,Buy,3,High,134.3139787,0.75,1.784,195
buysell_between5,5,Buy,4,Low,19.559038800000053,0.1,2.975,195
buysell_between5,5,Buy,5,High,127.73444539999946,1,1.069,195
buysell_between5,5,Buy,6,Medium,48.12894520000009,0.45,1.808,195
buysell_between5,5,Buy,7,High,146.28996350000125,0.75,0.476,195
buysell_between5,5,Buy,8,Medium,51.23200330000145,0.25,2.606,195
buysell_between5,5,Buy,9,Low,17.22681939999893,0.25,4.387,195
buysell_between5,5,Buy,10,Medium,51.509542699999656,0.45,0.939,195
buysell_between5,5,Buy,11,Low,22.330695799999376,0.1,3.823,195
buysell_between5,5,Buy,12,High,138.72468669999944,1,2.358,195
buysell_between5,5,Buy,13,Medium,53.15271589999975,0.75,3.351,195
buysell_between5,5,Buy,14,High,131.3872180999988,1,3.592,195
buysell_between5,5,Buy,15,Low,22.808764400000655,0.25,1.588,195
buysell_between5,5,Buy,16,High,141.8464528000004,1,1.273,195
buysell_between5,5,Buy,17,Low,41.87311429999863,0.45,6.099,195
buysell_between5,5,Buy,18,Medium,72.2242212000001,0.45,2.242,195
buysell_between60,60,Sell,1,Low,18.088795499992557,0.25,8.672,330
buysell_between60,60,Sell,2,Medium,46.369361299992306,0.75,10.216,330
buysell_between60,60,Sell,3,High,122.83043920001364,1,12.118,330
buysell_between60,60,Sell,4,Low,28.116775100002997,0.45,7.759,330
buysell_between60,60,Sell,5,High,134.3970551000093,1,8.132,330
buysell_between60,60,Sell,6,Medium,56.133549500023946,0.45,9.518,330
buysell_between60,60,Sell,7,High,154.96467899999698,1,6.725,330
buysell_between60,60,Sell,8,Medium,65.83645880001131,0.45,3.595,330
buysell_between60,60,Sell,9,Low,23.44959549998748,0.1,4.044,330
buysell_between60,60,Sell,10,Medium,61.50061350001488,0.45,19.842,330
buysell_between60,60,Sell,11,Low,19.965666700009024,0.1,4.888,330
buysell_between60,60,Sell,12,High,160.08741979999468,1,21.766,330
buysell_between60,60,Sell,13,Medium,77.84742850001203,0.45,26.118,330
buysell_between60,60,Sell,14,High,172.73001450000447,0.75,10.993,330
buysell_between60,60,Sell,15,Low,25.513271700008772,0.25,9.556,330
buysell_between60,60,Sell,16,High,192.51356120000128,0.45,22.462,330
buysell_between60,60,Sell,17,Low,27.164920699986396,0.1,10.743,330
buysell_between60,60,Sell,18,Medium,72.44723739998881,0.25,11.911,330
buysell_between61,61,Sell,1,Low,23.81807070004288,0.1,4.618,215
buysell_between61,61,Sell,2,Medium,70.51604040001985,0.25,6.261,215
buysell_between61,61,Sell,3,High,189.5150856000837,0.45,4.892,215
buysell_between61,61,Sell,4,Low,23.682142300065607,0.25,10.248,215
buysell_between61,61,Sell,5,High,198.65914299990982,0.75,3.932,215
buysell_between61,61,Sell,6,Medium,63.23256719997153,0.45,3.502,215
buysell_between61,61,Sell,7,High,196.56524049991276,1,1.62,215
buysell_between61,61,Sell,8,Medium,91.58339769998565,0.45,1.547,215
buysell_between61,61,Sell,9,Low,32.07781359995715,0.25,4.742,215
buysell_between61,61,Sell,10,Medium,86.567575699999,0.25,5.866,215
buysell_between61,61,Sell,11,Low,22.745688099996187,0.1,1.647,215
buysell_between61,61,Sell,12,High,210.33296780008823,1,3.324,215
buysell_between61,61,Sell,13,Medium,72.7958911000751,0.75,1.931,215
buysell_between61,61,Sell,14,High,192.4788000000408,0.75,2.35,215
buysell_between61,61,Sell,15,Low,32.66407850000542,0.25,2.025,215
buysell_between61,61,Sell,16,High,183.77969639992807,0.45,3.281,215
buysell_between61,61,Sell,17,Low,27.412572199944407,0.1,7.777,215
buysell_between61,61,Sell,18,Medium,70.97874090005644,0.25,2.409,215
buysell_between62,62,Buy,1,Low,28.388445000047795,0.1,3.144,210
buysell_between62,62,Buy,2,Medium,54.93497900001239,0.1,3.638,210
buysell_between62,62,Buy,3,High,161.0119252000004,0.1,3.633,210
buysell_between62,62,Buy,4,Low,20.549875700031407,0.1,6.67,210
buysell_between62,62,Buy,5,High,162.13006700004917,0.1,5.534,210
buysell_between62,62,Buy,6,Medium,61.2904515999835,0.1,8.159,210
buysell_between62,62,Buy,7,High,173.90271179995034,0.1,3.167,210
buysell_between62,62,Buy,8,Medium,75.81473640003242,0.1,1.318,210
buysell_between62,62,Buy,9,Low,17.63380509999115,0.1,4.763,210
buysell_between62,62,Buy,10,Medium,92.48246010008734,0.1,4.197,210
buysell_between62,62,Buy,11,Low,29.715829900000244,0.1,1.893,210
buysell_between62,62,Buy,12,High,219.73065799998585,0.1,4.648,210
buysell_between62,62,Buy,13,Medium,81.40030629991088,0.1,4.579,210
buysell_between62,62,Buy,14,High,154.19768700003624,0.1,7.35,210
buysell_between62,62,Buy,15,Low,49.16710119997151,0.1,3.267,210
buysell_between62,62,Buy,16,High,185.0495460999664,0.1,2.238,210
buysell_between62,62,Buy,17,Low,35.383497899980284,0.1,7.426,210
buysell_between62,62,Buy,18,Medium,76.13199289992917,0.1,3.159,210
buysell_between63,63,Sell,1,Low,19.671173300012015,0.1,5.692,385
buysell_between63,63,Sell,2,Medium,65.35008040000685,0.45,2.274,385
buysell_between63,63,Sell,3,High,210.99914909992367,0.75,3.955,385
buysell_between63,63,Sell,4,Low,23.01707040006295,0.25,15.823,385
buysell_between63,63,Sell,5,High,198.880785599933,0.75,5.97,385
buysell_between63,63,Sell,6,Medium,78.53566150006372,0.45,2.571,385
buysell_between63,63,Sell,7,High,226.9306002999656,1,2.506,385
buysell_between63,63,Sell,8,Medium,85.9803165999474,0.75,2.969,385
buysell_between63,63,Sell,9,Low,24.28057429997716,0.25,1.309,385
buysell_between63,63,Sell,10,Medium,87.50056630000472,0.75,5.796,385
buysell_between63,63,Sell,11,Low,31.115236200043,0.45,2.834,385
buysell_between63,63,Sell,12,High,220.04698790004477,0.75,12.026,385
buysell_between63,63,Sell,13,Medium,75.98608940001577,0.45,3.301,385
buysell_between63,63,Sell,14,High,226.53614940005355,0.75,0.624,385
buysell_between63,63,Sell,15,Low,25.851581200025976,0.45,2.547,385
buysell_between63,63,Sell,16,High,230.51714769995306,1,2.516,385
buysell_between63,63,Sell,17,Low,30.13304290000815,0.45,2.06,385
buysell_between63,63,Sell,18,Medium,91.417174500064,0.45,0.471,385
buysell_between64,64,Buy,1,Low,18.970754699781537,0.25,5.042,315
buysell_between64,64,Buy,2,Medium,48.921792699955404,0.45,1.094,315
buysell_between64,64,Buy,3,High,133.51576450001448,1,1.628,315
buysell_between64,64,Buy,4,Low,17.951256799977273,0.45,6.746,315
buysell_between64,64,Buy,5,High,121.16870260005817,0.75,3.639,315
buysell_between64,64,Buy,6,Medium,50.580483299912885,0.45,2.308,315
buysell_between64,64,Buy,7,High,116.98020690004341,0.75,2.582,315
buysell_between64,64,Buy,8,Medium,63.58306350000203,0.25,3.482,315
buysell_between64,64,Buy,9,Low,18.60004419996403,0.1,5.338,315
buysell_between64,64,Buy,10,Medium,51.18348570005037,0.45,3.284,315
buysell_between64,64,Buy,11,Low,18.547254800098017,0.25,2.072,315
buysell_between64,64,Buy,12,High,111.51992910006084,0.75,1.917,315
buysell_between64,64,Buy,13,Medium,47.5655769999139,0.45,0.943,315
buysell_between64,64,Buy,14,High,130.49763759993948,1,1.165,315
buysell_between64,64,Buy,15,Low,17.403991699917242,0.25,1.675,315
buysell_between64,64,Buy,16,High,138.68152250000276,1,4.056,315
buysell_between64,64,Buy,17,Low,17.579427799908444,0.25,7.279,315
buysell_between64,64,Buy,18,Medium,45.012554600136355,0.45,1.592,315
buysell_between65,65,Buy,1,Low,16.307597100000066,0.25,7.611,195
buysell_between65,65,Buy,2,Medium,54.859032899999875,0.25,6.362,195
buysell_between65,65,Buy,3,High,140.9704451,0.25,10.44,195
buysell_between65,65,Buy,4,Low,32.49892420000015,0.1,7.154,195
buysell_between65,65,Buy,5,High,137.8297326999998,0.25,7.786,195
buysell_between65,65,Buy,6,Medium,56.412096100000326,0.25,14.468,195
buysell_between65,65,Buy,7,High,137.0441079000002,0.45,13.002,195
buysell_between65,65,Buy,8,Medium,50.67949159999989,0.45,11.251,195
buysell_between65,65,Buy,9,Low,16.92968929999961,0.25,8.555,195
buysell_between65,65,Buy,10,Medium,53.1141047000001,0.25,6.768,195
buysell_between65,65,Buy,11,Low,18.326969199999894,0.25,3.169,195
buysell_between65,65,Buy,12,High,147.92801880000025,0.25,8.397,195
buysell_between65,65,Buy,13,Medium,53.34881630000018,0.25,5.007,195
buysell_between65,65,Buy,14,High,149.43344690000004,0.45,12.713,195
buysell_between65,65,Buy,15,Low,18.763202999999976,0.45,5.299,195
buysell_between65,65,Buy,16,High,160.91312359999984,0.25,10.302,195
buysell_between65,65,Buy,17,Low,20.970051699999658,0.45,8.993,195
buysell_between65,65,Buy,18,Medium,66.74070860000029,0.25,8.321,195
buysell_between66,66,Buy,1,Low,19.291627999999946,0.45,6.292,175
buysell_between66,66,Buy,2,Medium,41.70081570000002,0.45,6.616,175
buysell_between66,66,Buy,3,High,115.66636149999977,1,4.661,175
buysell_between66,66,Buy,4,Low,12.844949399999678,0.45,7.332,175
buysell_between66,66,Buy,5,High,115.53450870000052,0.1,4.419,175
buysell_between66,66,Buy,6,Medium,44.95321950000016,0.1,4.112,175
buysell_between66,66,Buy,7,High,122.21201819999987,0.45,4.247,175
buysell_between66,66,Buy,8,Medium,49.737164799999846,0.1,8.54,175
buysell_between66,66,Buy,9,Low,15.38465830000041,0.75,3.484,175
buysell_between66,66,Buy,10,Medium,49.52100809999956,0.45,2.937,175
buysell_between66,66,Buy,11,Low,15.302165499999319,0.25,7.777,175
buysell_between66,66,Buy,12,High,126.17882499999996,0.1,3.404,175
buysell_between66,66,Buy,13,Medium,50.51562710000053,0.1,5.845,175
buysell_between66,66,Buy,14,High,130.71781569999985,0.1,5.25,175
buysell_between66,66,Buy,15,Low,18.219912499999737,0.25,3.073,175
buysell_between66,66,Buy,16,High,124.72937999999976,0.25,4.366,175
buysell_between66,66,Buy,17,Low,29.728170800000044,0.25,5.857,175
buysell_between66,66,Buy,18,Medium,50.46155420000014,0.1,5.017,175
buysell_between67,67,Sell,1,Low,24.470218800008297,0.45,14.142,215
buysell_between67,67,Sell,2,Medium,65.81663110000954,0.25,1.979,215
buysell_between67,67,Sell,3,High,145.18310599999677,1,1.608,215
buysell_between67,67,Sell,4,Low,37.06819330000144,0.75,2.247,215
buysell_between67,67,Sell,5,High,219.4817800000019,0.45,0.435,215
buysell_between67,67,Sell,6,Medium,96.62922829999297,0.75,1.261,215
buysell_between67,67,Sell,7,High,246.8640768000041,0.45,1.089,215
buysell_between67,67,Sell,8,Medium,90.3963090999896,0.75,1.255,215
buysell_between67,67,Sell,9,Low,28.589140700001735,0.45,1.073,215
buysell_between67,67,Sell,10,Medium,95.5649456000101,1,4.561,215
buysell_between67,67,Sell,11,Low,31.702067400008673,0.75,1.353,215
buysell_between67,67,Sell,12,High,233.8493310000049,0.45,1.521,215
buysell_between67,67,Sell,13,Medium,88.1654251,0.1,11.417,215
buysell_between67,67,Sell,14,High,226.95528569999442,0.75,2.943,215
buysell_between67,67,Sell,15,Low,36.1305793000065,1,2.455,215
buysell_between67,67,Sell,16,High,209.3311423999985,0.75,13.008,215
buysell_between67,67,Sell,17,Low,32.9155807000061,0.25,5.633,215
buysell_between67,67,Sell,18,Medium,82.49857500000508,0.45,3.653,215
buysell_between68,68,Buy,1,Low,52.65410889999475,1,4.07,375
buysell_between68,68,Buy,2,Medium,68.05099000000337,0.1,3.806,375
buysell_between68,68,Buy,3,High,215.93249880000076,0.75,4.565,375
buysell_between68,68,Buy,4,Low,28.284666199993808,0.45,13.52,375
buysell_between68,68,Buy,5,High,211.90028450000682,1,4.737,375
buysell_between68,68,Buy,6,Medium,100.19805349998933,0.75,8.198,375
buysell_between68,68,Buy,7,High,256.3638883000094,0.1,5.902,375
buysell_between68,68,Buy,8,Medium,112.8820332000032,1,3.625,375
buysell_between68,68,Buy,9,Low,53.51506530000188,0.25,4.078,375
buysell_between68,68,Buy,10,Medium,75.5512929999968,0.45,2.493,375
buysell_between68,68,Buy,11,Low,29.437213500001235,0.75,3.111,375
buysell_between68,68,Buy,12,High,233.94994299999962,0.1,9.075,375
buysell_between68,68,Buy,13,Medium,86.13176519999979,0.25,5.467,375
buysell_between68,68,Buy,14,High,216.05180790000304,0.45,1.481,375
buysell_between68,68,Buy,15,Low,23.7158577000082,0.75,3.502,375
buysell_between68,68,Buy,16,High,224.91620729998976,0.75,4.088,375
buysell_between68,68,Buy,17,Low,26.248803999988013,0.75,5.577,375
buysell_between68,68,Buy,18,Medium,68.3515594000055,0.25,5.396,375
buysell_between69,69,Sell,1,Low,15.971765700000105,0.1,6.455,305
buysell_between69,69,Sell,2,Medium,56.64934030000586,0.25,5.023,305
buysell_between69,69,Sell,3,High,146.6808740000124,1,2.302,305
buysell_between69,69,Sell,4,Low,20.065434300006018,0.45,1.133,305
buysell_between69,69,Sell,5,High,161.29878660000395,1,1.791,305
buysell_between69,69,Sell,6,Medium,64.00238200000604,0.45,1.013,305
buysell_between69,69,Sell,7,High,181.732058900001,1,3.059,305
buysell_between69,69,Sell,8,Medium,62.05118870000297,0.45,7.107,305
buysell_between69,69,Sell,9,Low,18.785574500012444,0.25,4.96,305
buysell_between69,69,Sell,10,Medium,73.26149520000035,0.25,6.338,305
buysell_between69,69,Sell,11,Low,33.333061999990605,0.25,4.463,305
buysell_between69,69,Sell,12,High,132.34799160000694,0.1,4.977,305
buysell_between69,69,Sell,13,Medium,58.45146589999786,0.1,2.245,305
buysell_between69,69,Sell,14,High,168.65260449999187,1,2.499,305
buysell_between69,69,Sell,15,Low,20.181637900008354,0.1,3.674,305
buysell_between69,69,Sell,16,High,149.4319744999957,1,2.227,305
buysell_between69,69,Sell,17,Low,30.08744000000297,0.45,1.623,305
buysell_between69,69,Sell,18,Medium,58.76914089999627,0.45,2.287,305
buysell_between6,6,Buy,1,Low,14.68412840000019,0.45,3.999,190
buysell_between6,6,Buy,2,Medium,42.526053200001115,0.75,4.48,190
buysell_between6,6,Buy,3,High,114.95935759999884,1,5.441,190
buysell_between6,6,Buy,4,Low,12.894593299999542,0.75,7.589,190
buysell_between6,6,Buy,5,High,116.03726890000144,1,5.334,190
buysell_between6,6,Buy,6,Medium,43.93351430000075,0.45,1.786,190
buysell_between6,6,Buy,7,High,120.84811659999832,0.25,5.71,190
buysell_between6,6,Buy,8,Medium,40.34720749999906,0.25,3.394,190
buysell_between6,6,Buy,9,Low,14.384811500000069,0.75,6.063,190
buysell_between6,6,Buy,10,Medium,40.19266609999977,0.45,2.221,190
buysell_between6,6,Buy,11,Low,20.831109599999763,0.45,3.435,190
buysell_between6,6,Buy,12,High,117.11985640000057,0.25,4.651,190
buysell_between6,6,Buy,13,Medium,39.55842209999901,0.45,2.554,190
buysell_between6,6,Buy,14,High,123.3149983000003,0.25,3.065,190
buysell_between6,6,Buy,15,Low,14.622922800001106,0.25,3.633,190
buysell_between6,6,Buy,16,High,104.2774161999987,0.45,2.84,190
buysell_between6,6,Buy,17,Low,14.960636800002248,0.45,1.241,190
buysell_between6,6,Buy,18,Medium,38.49551340000107,0.45,4.418,190
buysell_between70,70,Sell,1,Low,25.661874899989925,0.45,7.29,295
buysell_between70,70,Sell,2,Medium,66.77196169999661,0.25,11.957,295
buysell_between70,70,Sell,3,High,159.58685739999055,0.1,4.856,295
buysell_between70,70,Sell,4,Low,21.43871940000099,0.1,5.821,295
buysell_between70,70,Sell,5,High,157.22104559998843,0.75,4.074,295
buysell_between70,70,Sell,6,Medium,64.6723834000004,0.25,6.323,295
buysell_between70,70,Sell,7,High,183.6032137000002,1,7.873,295
buysell_between70,70,Sell,8,Medium,64.18780189999961,0.75,4.99,295
buysell_between70,70,Sell,9,Low,21.721766999995452,0.1,3.973,295
buysell_between70,70,Sell,10,Medium,65.28763700000127,0.25,4.523,295
buysell_between70,70,Sell,11,Low,23.254527199998847,0.25,3.208,295
buysell_between70,70,Sell,12,High,183.5378092000028,0.45,3.139,295
buysell_between70,70,Sell,13,Medium,64.15441630000714,0.75,3.69,295
buysell_between70,70,Sell,14,High,168.13693000000785,1,1.891,295
buysell_between70,70,Sell,15,Low,34.071456400008174,0.25,2.44,295
buysell_between70,70,Sell,16,High,163.8877053000033,1,3.622,295
buysell_between70,70,Sell,17,Low,23.45496619999176,0.45,3.057,295
buysell_between70,70,Sell,18,Medium,60.654859000002034,0.25,4.187,295
buysell_between7,7,Buy,1,Low,22.069008499998745,0.25,3.966,280
buysell_between7,7,Buy,2,Medium,58.0775644000023,0.75,3.478,280
buysell_between7,7,Buy,3,High,150.5159292999997,1,4.518,280
buysell_between7,7,Buy,4,Low,23.733435099999042,0.1,5.594,280
buysell_between7,7,Buy,5,High,159.78280059999815,0.75,1.593,280
buysell_between7,7,Buy,6,Medium,58.68706739999834,0.45,1.894,280
buysell_between7,7,Buy,7,High,152.33133739999903,1,1.83,280
buysell_between7,7,Buy,8,Medium,69.78496289999748,0.45,2.728,280
buysell_between7,7,Buy,9,Low,21.25752940000166,0.25,1.873,280
buysell_between7,7,Buy,10,Medium,66.25696349999998,0.75,2.111,280
buysell_between7,7,Buy,11,Low,23.404086599999573,0.25,1.091,280
buysell_between7,7,Buy,12,High,165.3886781000001,1,1.323,280
buysell_between7,7,Buy,13,Medium,58.70853400000124,0.75,1.659,280
buysell_between7,7,Buy,14,High,97.85986989999947,0.75,2.194,280
buysell_between7,7,Buy,15,Low,44.71459500000128,0.45,1.992,280
buysell_between7,7,Buy,16,High,175.51394529999743,1,2.199,280
buysell_between7,7,Buy,17,Low,23.488714099999925,0.25,2.019,280
buysell_between7,7,Buy,18,Medium,61.59136290000242,0.75,1.574,280
buysell_between8,8,Sell,1,Low,16.72119830000156,0.25,5.539,315
buysell_between8,8,Sell,2,Medium,56.9174883000087,0.45,6.987,315
buysell_between8,8,Sell,3,High,119.54550290000043,1,4.506,315
buysell_between8,8,Sell,4,Low,15.480024900010903,0.75,4.207,315
buysell_between8,8,Sell,5,High,126.42609569999331,1,5.483,315
buysell_between8,8,Sell,6,Medium,50.06956550000177,0.45,2.535,315
buysell_between8,8,Sell,7,High,127.82623799999419,1,2.206,315
buysell_between8,8,Sell,8,Medium,53.45236140000634,0.45,4.401,315
buysell_between8,8,Sell,9,Low,17.315276799999992,0.75,3.275,315
buysell_between8,8,Sell,10,Medium,53.21885469999688,0.75,5.701,315
buysell_between8,8,Sell,11,Low,21.99548239998694,0.45,3.505,315
buysell_between8,8,Sell,12,High,125.32761420001043,1,4.355,315
buysell_between8,8,Sell,13,Medium,52.4854067999986,0.45,2.706,315
buysell_between8,8,Sell,14,High,126.97596320000594,0.75,10.89,315
buysell_between8,8,Sell,15,Low,23.944996599995648,1,4.576,315
buysell_between8,8,Sell,16,High,128.37647069999366,1,7.889,315
buysell_between8,8,Sell,17,Low,22.9971033000038,0.25,4.474,315
buysell_between8,8,Sell,18,Medium,53.019508699988364,0.45,5.483,315
buysell_between9,9,Buy,1,Low,31.632723000002443,0.25,2.023,265
buysell_between9,9,Buy,2,Medium,65.39919919999375,0.1,2.651,265
buysell_between9,9,Buy,3,High,217.59514299999864,0.45,1.169,265
buysell_between9,9,Buy,4,Low,24.01341990000219,0.45,0.687,265
buysell_between9,9,Buy,5,High,247.45048540001153,0.1,1.503,265
buysell_between9,9,Buy,6,Medium,94.53669069999887,0.1,2.838,265
buysell_between9,9,Buy,7,High,263.7633252000087,0.1,2.783,265
buysell_between9,9,Buy,8,Medium,73.96057719999226,0.45,1.035,265
buysell_between9,9,Buy,9,Low,24.362078699996346,0.45,1.275,265
buysell_between9,9,Buy,10,Medium,57.56661680000252,0.45,1.189,265
buysell_between9,9,Buy,11,Low,22.81282239999564,0.45,0.785,265
buysell_between9,9,Buy,12,High,196.76767149999796,0.45,0.401,265
buysell_between9,9,Buy,13,Medium,67.31442609999795,0.45,0.885,265
buysell_between9,9,Buy,14,High,209.53071189999173,0.25,2.107,265
buysell_between9,9,Buy,15,Low,24.661919100006344,0.45,3.001,265
buysell_between9,9,Buy,16,High,202.48390110000037,0.45,1.356,265
buysell_between9,9,Buy,17,Low,21.280899599994882,0.45,0.675,265
buysell_between9,9,Buy,18,Medium,62.632256299999426,0.45,1.44,265
