perspective,id,rt,gender,nasa_tlx,effort_steps,condition,trial,effort_level,rating,steps_req,age,adjusted_overall,experiment_name,effort_ans,scale_type
Perform,1,3.539,NA,350,32,Value,1,Low,1,30,NA,66,NA,NA,NA
Perform,1,2.929,NA,350,103,Value,2,Medium,2,100,NA,66,NA,NA,NA
Perform,1,2.277,NA,350,273,Value,3,High,5,270,NA,66,NA,NA,NA
Perform,1,1.913,NA,350,34,Value,4,Low,1,30,NA,66,NA,NA,NA
Perform,1,6.561,NA,350,276,Value,5,High,5,270,NA,66,NA,NA,NA
Perform,1,3.469,NA,350,105,Value,6,Medium,4,100,NA,66,NA,NA,NA
Perform,1,2.286,NA,350,270,Value,7,High,5,270,NA,66,NA,NA,NA
Perform,1,1.324,NA,350,102,Value,8,Medium,2,100,NA,66,NA,NA,NA
Perform,1,2.656,NA,350,33,Value,9,Low,1,30,NA,66,NA,NA,NA
Perform,1,3.537,NA,350,106,Value,10,Medium,3,100,NA,66,NA,NA,NA
Perform,1,2.116,NA,350,32,Value,11,Low,1,30,NA,66,NA,NA,NA
Perform,1,1.303,NA,350,272,Value,12,High,5,270,NA,66,NA,NA,NA
Perform,1,1.518,NA,350,101,Value,13,Medium,2,100,NA,66,NA,NA,NA
Perform,1,2.219,NA,350,274,Value,14,High,5,270,NA,66,NA,NA,NA
Perform,1,1.706,NA,350,32,Value,15,Low,1,30,NA,66,NA,NA,NA
Perform,1,2.051,NA,350,274,Value,16,High,5,270,NA,66,NA,NA,NA
Perform,1,1.453,NA,350,34,Value,17,Low,1,30,NA,66,NA,NA,NA
Perform,1,3.915,NA,350,102,Value,18,Medium,2,100,NA,66,NA,NA,NA
Perform,2,6.865,NA,315,31,Value,1,Low,2,30,NA,57.666666666666664,NA,NA,NA
Perform,2,6.858,NA,315,104,Value,2,Medium,2,100,NA,57.666666666666664,NA,NA,NA
Perform,2,7.32,NA,315,273,Value,3,High,2,270,NA,57.666666666666664,NA,NA,NA
Perform,2,0.994,NA,315,32,Value,4,Low,1,30,NA,57.666666666666664,NA,NA,NA
Perform,2,3.178,NA,315,275,Value,5,High,2,270,NA,57.666666666666664,NA,NA,NA
Perform,2,4.523,NA,315,108,Value,6,Medium,4,100,NA,57.666666666666664,NA,NA,NA
Perform,2,1.855,NA,315,273,Value,7,High,3,270,NA,57.666666666666664,NA,NA,NA
Perform,2,3.634,NA,315,100,Value,8,Medium,2,100,NA,57.666666666666664,NA,NA,NA
Perform,2,1.824,NA,315,32,Value,9,Low,4,30,NA,57.666666666666664,NA,NA,NA
Perform,2,1.163,NA,315,101,Value,10,Medium,3,100,NA,57.666666666666664,NA,NA,NA
Perform,2,5.718,NA,315,38,Value,11,Low,3,30,NA,57.666666666666664,NA,NA,NA
Perform,2,4.746,NA,315,269,Value,12,High,3,270,NA,57.666666666666664,NA,NA,NA
Perform,2,2.797,NA,315,102,Value,13,Medium,2,100,NA,57.666666666666664,NA,NA,NA
Perform,2,6.604,NA,315,271,Value,14,High,3,270,NA,57.666666666666664,NA,NA,NA
Perform,2,5.702,NA,315,32,Value,15,Low,2,30,NA,57.666666666666664,NA,NA,NA
Perform,2,1.807,NA,315,274,Value,16,High,1,270,NA,57.666666666666664,NA,NA,NA
Perform,2,6.324,NA,315,33,Value,17,Low,3,30,NA,57.666666666666664,NA,NA,NA
Perform,2,1.054,NA,315,104,Value,18,Medium,2,100,NA,57.666666666666664,NA,NA,NA
Perform,3,8.259,NA,420,37,Liking,1,Low,2,30,NA,77.33333333333333,NA,NA,NA
Perform,3,4.347,NA,420,104,Liking,2,Medium,4,100,NA,77.33333333333333,NA,NA,NA
Perform,3,4.071,NA,420,273,Liking,3,High,4,270,NA,77.33333333333333,NA,NA,NA
Perform,3,5.137,NA,420,34,Liking,4,Low,3,30,NA,77.33333333333333,NA,NA,NA
Perform,3,3.607,NA,420,273,Liking,5,High,2,270,NA,77.33333333333333,NA,NA,NA
Perform,3,3.027,NA,420,108,Liking,6,Medium,2,100,NA,77.33333333333333,NA,NA,NA
Perform,3,2.859,NA,420,272,Liking,7,High,1,270,NA,77.33333333333333,NA,NA,NA
Perform,3,2.514,NA,420,103,Liking,8,Medium,4,100,NA,77.33333333333333,NA,NA,NA
Perform,3,3.526,NA,420,33,Liking,9,Low,1,30,NA,77.33333333333333,NA,NA,NA
Perform,3,3.004,NA,420,103,Liking,10,Medium,2,100,NA,77.33333333333333,NA,NA,NA
Perform,3,2.508,NA,420,31,Liking,11,Low,3,30,NA,77.33333333333333,NA,NA,NA
Perform,3,2.109,NA,420,272,Liking,12,High,1,270,NA,77.33333333333333,NA,NA,NA
Perform,3,1.668,NA,420,100,Liking,13,Medium,1,100,NA,77.33333333333333,NA,NA,NA
Perform,3,1.933,NA,420,275,Liking,14,High,3,270,NA,77.33333333333333,NA,NA,NA
Perform,3,1.353,NA,420,29,Liking,15,Low,3,30,NA,77.33333333333333,NA,NA,NA
Perform,3,2.801,NA,420,273,Liking,16,High,2,270,NA,77.33333333333333,NA,NA,NA
Perform,3,1.68,NA,420,29,Liking,17,Low,3,30,NA,77.33333333333333,NA,NA,NA
Perform,3,1.888,NA,420,101,Liking,18,Medium,2,100,NA,77.33333333333333,NA,NA,NA
Perform,5,2.913,NA,275,30,Liking,1,Low,3,30,NA,61.666666666666664,NA,NA,NA
Perform,5,0.759,NA,275,98,Liking,2,Medium,2,100,NA,61.666666666666664,NA,NA,NA
Perform,5,3.191,NA,275,272,Liking,3,High,2,270,NA,61.666666666666664,NA,NA,NA
Perform,5,2.617,NA,275,31,Liking,4,Low,4,30,NA,61.666666666666664,NA,NA,NA
Perform,5,4.26,NA,275,272,Liking,5,High,3,270,NA,61.666666666666664,NA,NA,NA
Perform,5,4.91,NA,275,99,Liking,6,Medium,3,100,NA,61.666666666666664,NA,NA,NA
Perform,5,2.734,NA,275,269,Liking,7,High,2,270,NA,61.666666666666664,NA,NA,NA
Perform,5,1.247,NA,275,100,Liking,8,Medium,4,100,NA,61.666666666666664,NA,NA,NA
Perform,5,3.913,NA,275,31,Liking,9,Low,5,30,NA,61.666666666666664,NA,NA,NA
Perform,5,2.558,NA,275,98,Liking,10,Medium,3,100,NA,61.666666666666664,NA,NA,NA
Perform,5,1.704,NA,275,30,Liking,11,Low,5,30,NA,61.666666666666664,NA,NA,NA
Perform,5,1.289,NA,275,275,Liking,12,High,1,270,NA,61.666666666666664,NA,NA,NA
Perform,5,3.686,NA,275,99,Liking,13,Medium,3,100,NA,61.666666666666664,NA,NA,NA
Perform,5,2.1,NA,275,270,Liking,14,High,2,270,NA,61.666666666666664,NA,NA,NA
Perform,5,1.448,NA,275,30,Liking,15,Low,5,30,NA,61.666666666666664,NA,NA,NA
Perform,5,10.706,NA,275,272,Liking,16,High,4,270,NA,61.666666666666664,NA,NA,NA
Perform,5,5.043,NA,275,31,Liking,17,Low,3,30,NA,61.666666666666664,NA,NA,NA
Perform,5,3.554,NA,275,100,Liking,18,Medium,4,100,NA,61.666666666666664,NA,NA,NA
Perform,6,3.649,Female,245,32,Wanting,1,Low,1,30,20,61,NA,NA,NA
Perform,6,2.009,Female,245,102,Wanting,2,Medium,2,100,20,61,NA,NA,NA
Perform,6,3.646,Female,245,274,Wanting,3,High,5,270,20,61,NA,NA,NA
Perform,6,2.88,Female,245,35,Wanting,4,Low,2,30,20,61,NA,NA,NA
Perform,6,2.153,Female,245,273,Wanting,5,High,1,270,20,61,NA,NA,NA
Perform,6,2.957,Female,245,103,Wanting,6,Medium,2,100,20,61,NA,NA,NA
Perform,6,2.865,Female,245,272,Wanting,7,High,2,270,20,61,NA,NA,NA
Perform,6,2.345,Female,245,104,Wanting,8,Medium,4,100,20,61,NA,NA,NA
Perform,6,1.942,Female,245,32,Wanting,9,Low,4,30,20,61,NA,NA,NA
Perform,6,1.969,Female,245,103,Wanting,10,Medium,3,100,20,61,NA,NA,NA
Perform,6,1.797,Female,245,34,Wanting,11,Low,2,30,20,61,NA,NA,NA
Perform,6,5.098,Female,245,293,Wanting,12,High,4,270,20,61,NA,NA,NA
Perform,6,3.856,Female,245,103,Wanting,13,Medium,1,100,20,61,NA,NA,NA
Perform,6,3.23,Female,245,273,Wanting,14,High,1,270,20,61,NA,NA,NA
Perform,6,2.541,Female,245,32,Wanting,15,Low,3,30,20,61,NA,NA,NA
Perform,6,2.431,Female,245,274,Wanting,16,High,4,270,20,61,NA,NA,NA
Perform,6,2.38,Female,245,32,Wanting,17,Low,1,30,20,61,NA,NA,NA
Perform,6,2.539,Female,245,104,Wanting,18,Medium,3,100,20,61,NA,NA,NA
Perform,7,5.261,NA,275,29,Value,1,Low,1,30,NA,57,NA,NA,NA
Perform,7,4.653,NA,275,99,Value,2,Medium,3,100,NA,57,NA,NA,NA
Perform,7,7.209,NA,275,267,Value,3,High,5,270,NA,57,NA,NA,NA
Perform,7,14.623,NA,275,46,Value,4,Low,1,30,NA,57,NA,NA,NA
Perform,7,5.724,NA,275,273,Value,5,High,4,270,NA,57,NA,NA,NA
Perform,7,1.125,NA,275,98,Value,6,Medium,3,100,NA,57,NA,NA,NA
Perform,7,2.777,NA,275,269,Value,7,High,5,270,NA,57,NA,NA,NA
Perform,7,1.338,NA,275,100,Value,8,Medium,3,100,NA,57,NA,NA,NA
Perform,7,1.786,NA,275,32,Value,9,Low,1,30,NA,57,NA,NA,NA
Perform,7,1.739,NA,275,100,Value,10,Medium,4,100,NA,57,NA,NA,NA
Perform,7,2.586,NA,275,34,Value,11,Low,1,30,NA,57,NA,NA,NA
Perform,7,2.932,NA,275,271,Value,12,High,4,270,NA,57,NA,NA,NA
Perform,7,3.852,NA,275,102,Value,13,Medium,3,100,NA,57,NA,NA,NA
Perform,7,4.025,NA,275,274,Value,14,High,4,270,NA,57,NA,NA,NA
Perform,7,3.426,NA,275,31,Value,15,Low,1,30,NA,57,NA,NA,NA
Perform,7,2.555,NA,275,270,Value,16,High,5,270,NA,57,NA,NA,NA
Perform,7,2.046,NA,275,30,Value,17,Low,1,30,NA,57,NA,NA,NA
Perform,7,2.428,NA,275,106,Value,18,Medium,2,100,NA,57,NA,NA,NA
Perform,8,5.512,Male,125,32,Wanting,1,Low,5,30,22,27,NA,NA,NA
Perform,8,4.744,Male,125,101,Wanting,2,Medium,4,100,22,27,NA,NA,NA
Perform,8,6.292,Male,125,271,Wanting,3,High,2,270,22,27,NA,NA,NA
Perform,8,4.373,Male,125,31,Wanting,4,Low,3,30,22,27,NA,NA,NA
Perform,8,4.515,Male,125,269,Wanting,5,High,2,270,22,27,NA,NA,NA
Perform,8,3.549,Male,125,116,Wanting,6,Medium,3,100,22,27,NA,NA,NA
Perform,8,2.311,Male,125,269,Wanting,7,High,3,270,22,27,NA,NA,NA
Perform,8,2.811,Male,125,100,Wanting,8,Medium,2,100,22,27,NA,NA,NA
Perform,8,3.895,Male,125,31,Wanting,9,Low,3,30,22,27,NA,NA,NA
Perform,8,3.693,Male,125,100,Wanting,10,Medium,2,100,22,27,NA,NA,NA
Perform,8,2.951,Male,125,31,Wanting,11,Low,3,30,22,27,NA,NA,NA
Perform,8,4.54,Male,125,271,Wanting,12,High,4,270,22,27,NA,NA,NA
Perform,8,2.584,Male,125,101,Wanting,13,Medium,3,100,22,27,NA,NA,NA
Perform,8,3.23,Male,125,270,Wanting,14,High,2,270,22,27,NA,NA,NA
Perform,8,3.262,Male,125,31,Wanting,15,Low,3,30,22,27,NA,NA,NA
Perform,8,5.518,Male,125,270,Wanting,16,High,2,270,22,27,NA,NA,NA
Perform,8,3.882,Male,125,29,Wanting,17,Low,3,30,22,27,NA,NA,NA
Perform,8,7.271,Male,125,103,Wanting,18,Medium,3,100,22,27,NA,NA,NA
Perform,9,3.261,NA,300,32,Liking,1,Low,4,30,NA,55.666666666666664,NA,NA,NA
Perform,9,5.232,NA,300,102,Liking,2,Medium,5,100,NA,55.666666666666664,NA,NA,NA
Perform,9,7.548,NA,300,272,Liking,3,High,5,270,NA,55.666666666666664,NA,NA,NA
Perform,9,4.148,NA,300,31,Liking,4,Low,5,30,NA,55.666666666666664,NA,NA,NA
Perform,9,7.347,NA,300,275,Liking,5,High,1,270,NA,55.666666666666664,NA,NA,NA
Perform,9,5.411,NA,300,103,Liking,6,Medium,2,100,NA,55.666666666666664,NA,NA,NA
Perform,9,3.154,NA,300,272,Liking,7,High,5,270,NA,55.666666666666664,NA,NA,NA
Perform,9,2.402,NA,300,99,Liking,8,Medium,4,100,NA,55.666666666666664,NA,NA,NA
Perform,9,2.089,NA,300,31,Liking,9,Low,5,30,NA,55.666666666666664,NA,NA,NA
Perform,9,6.316,NA,300,119,Liking,10,Medium,5,100,NA,55.666666666666664,NA,NA,NA
Perform,9,3.478,NA,300,32,Liking,11,Low,4,30,NA,55.666666666666664,NA,NA,NA
Perform,9,6.461,NA,300,270,Liking,12,High,2,270,NA,55.666666666666664,NA,NA,NA
Perform,9,2.215,NA,300,101,Liking,13,Medium,3,100,NA,55.666666666666664,NA,NA,NA
Perform,9,3.405,NA,300,273,Liking,14,High,1,270,NA,55.666666666666664,NA,NA,NA
Perform,9,3.496,NA,300,31,Liking,15,Low,4,30,NA,55.666666666666664,NA,NA,NA
Perform,9,2.777,NA,300,271,Liking,16,High,1,270,NA,55.666666666666664,NA,NA,NA
Perform,9,1.419,NA,300,31,Liking,17,Low,5,30,NA,55.666666666666664,NA,NA,NA
Perform,9,1.708,NA,300,100,Liking,18,Medium,2,100,NA,55.666666666666664,NA,NA,NA
Perform,10,2.724,Female,460,30,Wanting,1,Low,5,30,28,89.33333333333333,NA,NA,NA
Perform,10,15.493,Female,460,102,Wanting,2,Medium,4,100,28,89.33333333333333,NA,NA,NA
Perform,10,9.678,Female,460,272,Wanting,3,High,3,270,28,89.33333333333333,NA,NA,NA
Perform,10,3.374,Female,460,34,Wanting,4,Low,5,30,28,89.33333333333333,NA,NA,NA
Perform,10,7.535,Female,460,271,Wanting,5,High,1,270,28,89.33333333333333,NA,NA,NA
Perform,10,9.8,Female,460,100,Wanting,6,Medium,2,100,28,89.33333333333333,NA,NA,NA
Perform,10,3.052,Female,460,270,Wanting,7,High,3,270,28,89.33333333333333,NA,NA,NA
Perform,10,5.815,Female,460,100,Wanting,8,Medium,5,100,28,89.33333333333333,NA,NA,NA
Perform,10,4.507,Female,460,30,Wanting,9,Low,1,30,28,89.33333333333333,NA,NA,NA
Perform,10,11.13,Female,460,101,Wanting,10,Medium,4,100,28,89.33333333333333,NA,NA,NA
Perform,10,2.964,Female,460,29,Wanting,11,Low,5,30,28,89.33333333333333,NA,NA,NA
Perform,10,4.271,Female,460,272,Wanting,12,High,5,270,28,89.33333333333333,NA,NA,NA
Perform,10,3.062,Female,460,98,Wanting,13,Medium,5,100,28,89.33333333333333,NA,NA,NA
Perform,10,3.674,Female,460,270,Wanting,14,High,1,270,28,89.33333333333333,NA,NA,NA
Perform,10,4.669,Female,460,31,Wanting,15,Low,1,30,28,89.33333333333333,NA,NA,NA
Perform,10,4.459,Female,460,269,Wanting,16,High,1,270,28,89.33333333333333,NA,NA,NA
Perform,10,2.76,Female,460,30,Wanting,17,Low,1,30,28,89.33333333333333,NA,NA,NA
Perform,10,7.824,Female,460,105,Wanting,18,Medium,1,100,28,89.33333333333333,NA,NA,NA
Perform,11,6.195,Female,375,58,Wanting,1,Low,2,30,19,63.666666666666664,NA,NA,NA
Perform,11,3.513,Female,375,100,Wanting,2,Medium,1,100,19,63.666666666666664,NA,NA,NA
Perform,11,27.796,Female,375,319,Wanting,3,High,2,270,19,63.666666666666664,NA,NA,NA
Perform,11,4.466,Female,375,34,Wanting,4,Low,1,30,19,63.666666666666664,NA,NA,NA
Perform,11,2.545,Female,375,270,Wanting,5,High,1,270,19,63.666666666666664,NA,NA,NA
Perform,11,3.657,Female,375,103,Wanting,6,Medium,1,100,19,63.666666666666664,NA,NA,NA
Perform,11,2.473,Female,375,272,Wanting,7,High,1,270,19,63.666666666666664,NA,NA,NA
Perform,11,2.391,Female,375,104,Wanting,8,Medium,1,100,19,63.666666666666664,NA,NA,NA
Perform,11,2.7,Female,375,39,Wanting,9,Low,1,30,19,63.666666666666664,NA,NA,NA
Perform,11,1.732,Female,375,105,Wanting,10,Medium,1,100,19,63.666666666666664,NA,NA,NA
Perform,11,2.303,Female,375,44,Wanting,11,Low,1,30,19,63.666666666666664,NA,NA,NA
Perform,11,2.142,Female,375,270,Wanting,12,High,1,270,19,63.666666666666664,NA,NA,NA
Perform,11,2.562,Female,375,103,Wanting,13,Medium,1,100,19,63.666666666666664,NA,NA,NA
Perform,11,2.331,Female,375,276,Wanting,14,High,1,270,19,63.666666666666664,NA,NA,NA
Perform,11,1.861,Female,375,33,Wanting,15,Low,1,30,19,63.666666666666664,NA,NA,NA
Perform,11,1.663,Female,375,271,Wanting,16,High,5,270,19,63.666666666666664,NA,NA,NA
Perform,11,1.879,Female,375,32,Wanting,17,Low,5,30,19,63.666666666666664,NA,NA,NA
Perform,11,3.176,Female,375,103,Wanting,18,Medium,5,100,19,63.666666666666664,NA,NA,NA
Perform,12,2.778,Female,280,32,Wanting,1,Low,4,30,19,55.333333333333336,NA,NA,NA
Perform,12,3.559,Female,280,102,Wanting,2,Medium,5,100,19,55.333333333333336,NA,NA,NA
Perform,12,4.395,Female,280,272,Wanting,3,High,2,270,19,55.333333333333336,NA,NA,NA
Perform,12,2.248,Female,280,33,Wanting,4,Low,2,30,19,55.333333333333336,NA,NA,NA
Perform,12,1.933,Female,280,270,Wanting,5,High,3,270,19,55.333333333333336,NA,NA,NA
Perform,12,1.712,Female,280,102,Wanting,6,Medium,3,100,19,55.333333333333336,NA,NA,NA
Perform,12,2.614,Female,280,290,Wanting,7,High,1,270,19,55.333333333333336,NA,NA,NA
Perform,12,2.829,Female,280,100,Wanting,8,Medium,3,100,19,55.333333333333336,NA,NA,NA
Perform,12,3.063,Female,280,29,Wanting,9,Low,4,30,19,55.333333333333336,NA,NA,NA
Perform,12,5.09,Female,280,102,Wanting,10,Medium,3,100,19,55.333333333333336,NA,NA,NA
Perform,12,2.564,Female,280,29,Wanting,11,Low,4,30,19,55.333333333333336,NA,NA,NA
Perform,12,2.726,Female,280,270,Wanting,12,High,2,270,19,55.333333333333336,NA,NA,NA
Perform,12,2.697,Female,280,103,Wanting,13,Medium,2,100,19,55.333333333333336,NA,NA,NA
Perform,12,2.109,Female,280,270,Wanting,14,High,2,270,19,55.333333333333336,NA,NA,NA
Perform,12,1.798,Female,280,33,Wanting,15,Low,3,30,19,55.333333333333336,NA,NA,NA
Perform,12,2.703,Female,280,273,Wanting,16,High,3,270,19,55.333333333333336,NA,NA,NA
Perform,12,2.348,Female,280,34,Wanting,17,Low,3,30,19,55.333333333333336,NA,NA,NA
Perform,12,2.893,Female,280,101,Wanting,18,Medium,3,100,19,55.333333333333336,NA,NA,NA
Perform,13,4.564,NA,275,32,Liking,1,Low,1,30,NA,48.666666666666664,NA,NA,NA
Perform,13,2.139,NA,275,101,Liking,2,Medium,3,100,NA,48.666666666666664,NA,NA,NA
Perform,13,4.773,NA,275,274,Liking,3,High,4,270,NA,48.666666666666664,NA,NA,NA
Perform,13,5.53,NA,275,35,Liking,4,Low,1,30,NA,48.666666666666664,NA,NA,NA
Perform,13,8.376,NA,275,277,Liking,5,High,4,270,NA,48.666666666666664,NA,NA,NA
Perform,13,3.966,NA,275,101,Liking,6,Medium,1,100,NA,48.666666666666664,NA,NA,NA
Perform,13,3.937,NA,275,271,Liking,7,High,2,270,NA,48.666666666666664,NA,NA,NA
Perform,13,4.651,NA,275,101,Liking,8,Medium,4,100,NA,48.666666666666664,NA,NA,NA
Perform,13,2.06,NA,275,32,Liking,9,Low,1,30,NA,48.666666666666664,NA,NA,NA
Perform,13,3.247,NA,275,100,Liking,10,Medium,1,100,NA,48.666666666666664,NA,NA,NA
Perform,13,2.141,NA,275,32,Liking,11,Low,1,30,NA,48.666666666666664,NA,NA,NA
Perform,13,3.594,NA,275,271,Liking,12,High,4,270,NA,48.666666666666664,NA,NA,NA
Perform,13,3.613,NA,275,103,Liking,13,Medium,5,100,NA,48.666666666666664,NA,NA,NA
Perform,13,6.132,NA,275,274,Liking,14,High,2,270,NA,48.666666666666664,NA,NA,NA
Perform,13,4.111,NA,275,32,Liking,15,Low,2,30,NA,48.666666666666664,NA,NA,NA
Perform,13,4.985,NA,275,275,Liking,16,High,2,270,NA,48.666666666666664,NA,NA,NA
Perform,13,5.088,NA,275,31,Liking,17,Low,3,30,NA,48.666666666666664,NA,NA,NA
Perform,13,16.868,NA,275,101,Liking,18,Medium,1,100,NA,48.666666666666664,NA,NA,NA
Perform,15,7.678,Female,365,31,Wanting,1,Low,4,30,22,70,NA,NA,NA
Perform,15,4.154,Female,365,102,Wanting,2,Medium,5,100,22,70,NA,NA,NA
Perform,15,2.844,Female,365,272,Wanting,3,High,2,270,22,70,NA,NA,NA
Perform,15,3.527,Female,365,54,Wanting,4,Low,3,30,22,70,NA,NA,NA
Perform,15,6.045,Female,365,273,Wanting,5,High,2,270,22,70,NA,NA,NA
Perform,15,6.738,Female,365,101,Wanting,6,Medium,4,100,22,70,NA,NA,NA
Perform,15,3.951,Female,365,272,Wanting,7,High,1,270,22,70,NA,NA,NA
Perform,15,7.528,Female,365,103,Wanting,8,Medium,4,100,22,70,NA,NA,NA
Perform,15,5.959,Female,365,35,Wanting,9,Low,4,30,22,70,NA,NA,NA
Perform,15,7.175,Female,365,109,Wanting,10,Medium,4,100,22,70,NA,NA,NA
Perform,15,2.576,Female,365,34,Wanting,11,Low,5,30,22,70,NA,NA,NA
Perform,15,5.228,Female,365,272,Wanting,12,High,1,270,22,70,NA,NA,NA
Perform,15,3.848,Female,365,105,Wanting,13,Medium,3,100,22,70,NA,NA,NA
Perform,15,3.357,Female,365,273,Wanting,14,High,2,270,22,70,NA,NA,NA
Perform,15,2.514,Female,365,34,Wanting,15,Low,4,30,22,70,NA,NA,NA
Perform,15,7.922,Female,365,274,Wanting,16,High,3,270,22,70,NA,NA,NA
Perform,15,3.079,Female,365,32,Wanting,17,Low,5,30,22,70,NA,NA,NA
Perform,15,2.482,Female,365,105,Wanting,18,Medium,5,100,22,70,NA,NA,NA
Perform,17,2.86,Female,275,49,Wanting,1,Low,3,30,22,61.333333333333336,NA,NA,NA
Perform,17,1.863,Female,275,105,Wanting,2,Medium,3,100,22,61.333333333333336,NA,NA,NA
Perform,17,4.647,Female,275,274,Wanting,3,High,3,270,22,61.333333333333336,NA,NA,NA
Perform,17,0.958,Female,275,33,Wanting,4,Low,3,30,22,61.333333333333336,NA,NA,NA
Perform,17,1.905,Female,275,276,Wanting,5,High,3,270,22,61.333333333333336,NA,NA,NA
Perform,17,1.416,Female,275,102,Wanting,6,Medium,3,100,22,61.333333333333336,NA,NA,NA
Perform,17,2.135,Female,275,280,Wanting,7,High,3,270,22,61.333333333333336,NA,NA,NA
Perform,17,1.41,Female,275,94,Wanting,8,Medium,3,100,22,61.333333333333336,NA,NA,NA
Perform,17,1.249,Female,275,33,Wanting,9,Low,3,30,22,61.333333333333336,NA,NA,NA
Perform,17,1.188,Female,275,103,Wanting,10,Medium,3,100,22,61.333333333333336,NA,NA,NA
Perform,17,2.103,Female,275,52,Wanting,11,Low,3,30,22,61.333333333333336,NA,NA,NA
Perform,17,1.523,Female,275,274,Wanting,12,High,3,270,22,61.333333333333336,NA,NA,NA
Perform,17,1.376,Female,275,106,Wanting,13,Medium,3,100,22,61.333333333333336,NA,NA,NA
Perform,17,1.555,Female,275,271,Wanting,14,High,3,270,22,61.333333333333336,NA,NA,NA
Perform,17,1.224,Female,275,32,Wanting,15,Low,3,30,22,61.333333333333336,NA,NA,NA
Perform,17,1.646,Female,275,276,Wanting,16,High,3,270,22,61.333333333333336,NA,NA,NA
Perform,17,1.01,Female,275,34,Wanting,17,Low,3,30,22,61.333333333333336,NA,NA,NA
Perform,17,1.312,Female,275,102,Wanting,18,Medium,3,100,22,61.333333333333336,NA,NA,NA
Perform,18,2.413,NA,145,35,Liking,1,Low,4,30,NA,32.666666666666664,NA,NA,NA
Perform,18,4.077,NA,145,105,Liking,2,Medium,2,100,NA,32.666666666666664,NA,NA,NA
Perform,18,1.167,NA,145,271,Liking,3,High,1,270,NA,32.666666666666664,NA,NA,NA
Perform,18,2.015,NA,145,32,Liking,4,Low,5,30,NA,32.666666666666664,NA,NA,NA
Perform,18,4.031,NA,145,271,Liking,5,High,2,270,NA,32.666666666666664,NA,NA,NA
Perform,18,1.618,NA,145,100,Liking,6,Medium,3,100,NA,32.666666666666664,NA,NA,NA
Perform,18,3.434,NA,145,272,Liking,7,High,4,270,NA,32.666666666666664,NA,NA,NA
Perform,18,2.044,NA,145,103,Liking,8,Medium,4,100,NA,32.666666666666664,NA,NA,NA
Perform,18,1.534,NA,145,32,Liking,9,Low,1,30,NA,32.666666666666664,NA,NA,NA
Perform,18,1.012,NA,145,101,Liking,10,Medium,4,100,NA,32.666666666666664,NA,NA,NA
Perform,18,1.546,NA,145,31,Liking,11,Low,1,30,NA,32.666666666666664,NA,NA,NA
Perform,18,1.374,NA,145,272,Liking,12,High,5,270,NA,32.666666666666664,NA,NA,NA
Perform,18,1.447,NA,145,103,Liking,13,Medium,5,100,NA,32.666666666666664,NA,NA,NA
Perform,18,3.463,NA,145,270,Liking,14,High,3,270,NA,32.666666666666664,NA,NA,NA
Perform,18,1.209,NA,145,31,Liking,15,Low,2,30,NA,32.666666666666664,NA,NA,NA
Perform,18,1.724,NA,145,273,Liking,16,High,1,270,NA,32.666666666666664,NA,NA,NA
Perform,18,0.796,NA,145,36,Liking,17,Low,5,30,NA,32.666666666666664,NA,NA,NA
Perform,18,1.68,NA,145,101,Liking,18,Medium,5,100,NA,32.666666666666664,NA,NA,NA
Perform,19,1.725,NA,320,50,Value,1,Low,1,30,NA,64.66666666666667,NA,NA,NA
Perform,19,3.004,NA,320,104,Value,2,Medium,3,100,NA,64.66666666666667,NA,NA,NA
Perform,19,1.682,NA,320,274,Value,3,High,5,270,NA,64.66666666666667,NA,NA,NA
Perform,19,1.45,NA,320,32,Value,4,Low,1,30,NA,64.66666666666667,NA,NA,NA
Perform,19,2.272,NA,320,273,Value,5,High,5,270,NA,64.66666666666667,NA,NA,NA
Perform,19,2.407,NA,320,103,Value,6,Medium,3,100,NA,64.66666666666667,NA,NA,NA
Perform,19,2.776,NA,320,273,Value,7,High,4,270,NA,64.66666666666667,NA,NA,NA
Perform,19,2.754,NA,320,102,Value,8,Medium,2,100,NA,64.66666666666667,NA,NA,NA
Perform,19,2.358,NA,320,32,Value,9,Low,1,30,NA,64.66666666666667,NA,NA,NA
Perform,19,2.672,NA,320,103,Value,10,Medium,2,100,NA,64.66666666666667,NA,NA,NA
Perform,19,1.796,NA,320,30,Value,11,Low,1,30,NA,64.66666666666667,NA,NA,NA
Perform,19,3.517,NA,320,275,Value,12,High,4,270,NA,64.66666666666667,NA,NA,NA
Perform,19,2.66,NA,320,105,Value,13,Medium,3,100,NA,64.66666666666667,NA,NA,NA
Perform,19,3.351,NA,320,273,Value,14,High,4,270,NA,64.66666666666667,NA,NA,NA
Perform,19,2.879,NA,320,35,Value,15,Low,2,30,NA,64.66666666666667,NA,NA,NA
Perform,19,11.061,NA,320,273,Value,16,High,4,270,NA,64.66666666666667,NA,NA,NA
Perform,19,2.192,NA,320,32,Value,17,Low,1,30,NA,64.66666666666667,NA,NA,NA
Perform,19,2.124,NA,320,102,Value,18,Medium,2,100,NA,64.66666666666667,NA,NA,NA
Perform,23,2.321,NA,310,33,Value,1,Low,2,30,NA,59.666666666666664,NA,NA,NA
Perform,23,3.829,NA,310,103,Value,2,Medium,4,100,NA,59.666666666666664,NA,NA,NA
Perform,23,3.33,NA,310,273,Value,3,High,5,270,NA,59.666666666666664,NA,NA,NA
Perform,23,3.544,NA,310,34,Value,4,Low,2,30,NA,59.666666666666664,NA,NA,NA
Perform,23,3.543,NA,310,271,Value,5,High,5,270,NA,59.666666666666664,NA,NA,NA
Perform,23,3.461,NA,310,103,Value,6,Medium,3,100,NA,59.666666666666664,NA,NA,NA
Perform,23,3.975,NA,310,273,Value,7,High,5,270,NA,59.666666666666664,NA,NA,NA
Perform,23,4.559,NA,310,102,Value,8,Medium,3,100,NA,59.666666666666664,NA,NA,NA
Perform,23,4.368,NA,310,33,Value,9,Low,1,30,NA,59.666666666666664,NA,NA,NA
Perform,23,1.995,NA,310,103,Value,10,Medium,3,100,NA,59.666666666666664,NA,NA,NA
Perform,23,2.01,NA,310,33,Value,11,Low,1,30,NA,59.666666666666664,NA,NA,NA
Perform,23,3.357,NA,310,272,Value,12,High,4,270,NA,59.666666666666664,NA,NA,NA
Perform,23,3.104,NA,310,103,Value,13,Medium,3,100,NA,59.666666666666664,NA,NA,NA
Perform,23,2.779,NA,310,275,Value,14,High,5,270,NA,59.666666666666664,NA,NA,NA
Perform,23,1.901,NA,310,40,Value,15,Low,1,30,NA,59.666666666666664,NA,NA,NA
Perform,23,3.348,NA,310,273,Value,16,High,5,270,NA,59.666666666666664,NA,NA,NA
Perform,23,2.805,NA,310,32,Value,17,Low,1,30,NA,59.666666666666664,NA,NA,NA
Perform,23,4.806,NA,310,103,Value,18,Medium,3,100,NA,59.666666666666664,NA,NA,NA
Perform,24,6.26,NA,280,36,Value,1,Low,1,30,NA,57.666666666666664,NA,NA,NA
Perform,24,38.2,NA,280,106,Value,2,Medium,3,100,NA,57.666666666666664,NA,NA,NA
Perform,24,2.276,NA,280,276,Value,3,High,3,270,NA,57.666666666666664,NA,NA,NA
Perform,24,3.738,NA,280,34,Value,4,Low,1,30,NA,57.666666666666664,NA,NA,NA
Perform,24,2.412,NA,280,276,Value,5,High,5,270,NA,57.666666666666664,NA,NA,NA
Perform,24,4.01,NA,280,102,Value,6,Medium,1,100,NA,57.666666666666664,NA,NA,NA
Perform,24,8.097,NA,280,273,Value,7,High,5,270,NA,57.666666666666664,NA,NA,NA
Perform,24,4.023,NA,280,104,Value,8,Medium,3,100,NA,57.666666666666664,NA,NA,NA
Perform,24,2.957,NA,280,31,Value,9,Low,2,30,NA,57.666666666666664,NA,NA,NA
Perform,24,2.044,NA,280,98,Value,10,Medium,4,100,NA,57.666666666666664,NA,NA,NA
Perform,24,5.054,NA,280,35,Value,11,Low,1,30,NA,57.666666666666664,NA,NA,NA
Perform,24,5.623,NA,280,274,Value,12,High,1,270,NA,57.666666666666664,NA,NA,NA
Perform,24,2.824,NA,280,110,Value,13,Medium,5,100,NA,57.666666666666664,NA,NA,NA
Perform,24,8.373,NA,280,278,Value,14,High,3,270,NA,57.666666666666664,NA,NA,NA
Perform,24,4.694,NA,280,35,Value,15,Low,2,30,NA,57.666666666666664,NA,NA,NA
Perform,24,6.838,NA,280,273,Value,16,High,5,270,NA,57.666666666666664,NA,NA,NA
Perform,24,2.362,NA,280,29,Value,17,Low,3,30,NA,57.666666666666664,NA,NA,NA
Perform,24,2.397,NA,280,106,Value,18,Medium,5,100,NA,57.666666666666664,NA,NA,NA
Perform,25,3.09,NA,230,32,Liking,1,Low,3,30,NA,56.666666666666664,NA,NA,NA
Perform,25,6.731,NA,230,105,Liking,2,Medium,5,100,NA,56.666666666666664,NA,NA,NA
Perform,25,2.832,NA,230,273,Liking,3,High,4,270,NA,56.666666666666664,NA,NA,NA
Perform,25,2.525,NA,230,30,Liking,4,Low,2,30,NA,56.666666666666664,NA,NA,NA
Perform,25,7.203,NA,230,272,Liking,5,High,4,270,NA,56.666666666666664,NA,NA,NA
Perform,25,4.602,NA,230,103,Liking,6,Medium,2,100,NA,56.666666666666664,NA,NA,NA
Perform,25,3.581,NA,230,273,Liking,7,High,5,270,NA,56.666666666666664,NA,NA,NA
Perform,25,1.984,NA,230,104,Liking,8,Medium,1,100,NA,56.666666666666664,NA,NA,NA
Perform,25,5.048,NA,230,34,Liking,9,Low,5,30,NA,56.666666666666664,NA,NA,NA
Perform,25,1.985,NA,230,102,Liking,10,Medium,5,100,NA,56.666666666666664,NA,NA,NA
Perform,25,0.833,NA,230,34,Liking,11,Low,4,30,NA,56.666666666666664,NA,NA,NA
Perform,25,4.221,NA,230,272,Liking,12,High,3,270,NA,56.666666666666664,NA,NA,NA
Perform,25,2.579,NA,230,103,Liking,13,Medium,3,100,NA,56.666666666666664,NA,NA,NA
Perform,25,3.739,NA,230,273,Liking,14,High,3,270,NA,56.666666666666664,NA,NA,NA
Perform,25,2.726,NA,230,36,Liking,15,Low,2,30,NA,56.666666666666664,NA,NA,NA
Perform,25,1.701,NA,230,271,Liking,16,High,4,270,NA,56.666666666666664,NA,NA,NA
Perform,25,0.84,NA,230,33,Liking,17,Low,2,30,NA,56.666666666666664,NA,NA,NA
Perform,25,3.068,NA,230,104,Liking,18,Medium,3,100,NA,56.666666666666664,NA,NA,NA
Perform,26,4.181,NA,295,36,Value,1,Low,3,30,NA,67,NA,NA,NA
Perform,26,4.242,NA,295,104,Value,2,Medium,4,100,NA,67,NA,NA,NA
Perform,26,8.742,NA,295,272,Value,3,High,5,270,NA,67,NA,NA,NA
Perform,26,3.449,NA,295,38,Value,4,Low,3,30,NA,67,NA,NA,NA
Perform,26,5.344,NA,295,272,Value,5,High,4,270,NA,67,NA,NA,NA
Perform,26,5.118,NA,295,103,Value,6,Medium,3,100,NA,67,NA,NA,NA
Perform,26,3.358,NA,295,273,Value,7,High,4,270,NA,67,NA,NA,NA
Perform,26,2.904,NA,295,101,Value,8,Medium,5,100,NA,67,NA,NA,NA
Perform,26,4.376,NA,295,39,Value,9,Low,4,30,NA,67,NA,NA,NA
Perform,26,4.37,NA,295,106,Value,10,Medium,4,100,NA,67,NA,NA,NA
Perform,26,2.042,NA,295,34,Value,11,Low,4,30,NA,67,NA,NA,NA
Perform,26,4.026,NA,295,271,Value,12,High,4,270,NA,67,NA,NA,NA
Perform,26,4.374,NA,295,102,Value,13,Medium,3,100,NA,67,NA,NA,NA
Perform,26,5.667,NA,295,273,Value,14,High,5,270,NA,67,NA,NA,NA
Perform,26,6.059,NA,295,42,Value,15,Low,3,30,NA,67,NA,NA,NA
Perform,26,3.469,NA,295,274,Value,16,High,4,270,NA,67,NA,NA,NA
Perform,26,9.421,NA,295,51,Value,17,Low,3,30,NA,67,NA,NA,NA
Perform,26,1.899,NA,295,104,Value,18,Medium,4,100,NA,67,NA,NA,NA
Perform,27,11.276,NA,315,36,Value,1,Low,2,30,NA,57,NA,NA,NA
Perform,27,9.46,NA,315,103,Value,2,Medium,2,100,NA,57,NA,NA,NA
Perform,27,24.601,NA,315,308,Value,3,High,3,270,NA,57,NA,NA,NA
Perform,27,3.841,NA,315,30,Value,4,Low,3,30,NA,57,NA,NA,NA
Perform,27,10.945,NA,315,273,Value,5,High,3,270,NA,57,NA,NA,NA
Perform,27,13.306,NA,315,109,Value,6,Medium,2,100,NA,57,NA,NA,NA
Perform,27,9.328,NA,315,272,Value,7,High,4,270,NA,57,NA,NA,NA
Perform,27,12.517,NA,315,107,Value,8,Medium,3,100,NA,57,NA,NA,NA
Perform,27,7.659,NA,315,33,Value,9,Low,2,30,NA,57,NA,NA,NA
Perform,27,9.065,NA,315,104,Value,10,Medium,2,100,NA,57,NA,NA,NA
Perform,27,12.873,NA,315,32,Value,11,Low,1,30,NA,57,NA,NA,NA
Perform,27,10.007,NA,315,269,Value,12,High,4,270,NA,57,NA,NA,NA
Perform,27,6.766,NA,315,101,Value,13,Medium,2,100,NA,57,NA,NA,NA
Perform,27,11.66,NA,315,275,Value,14,High,4,270,NA,57,NA,NA,NA
Perform,27,10.977,NA,315,43,Value,15,Low,1,30,NA,57,NA,NA,NA
Perform,27,11.46,NA,315,282,Value,16,High,3,270,NA,57,NA,NA,NA
Perform,27,7.11,NA,315,32,Value,17,Low,2,30,NA,57,NA,NA,NA
Perform,27,14.654,NA,315,105,Value,18,Medium,2,100,NA,57,NA,NA,NA
Perform,28,4.526,NA,305,38,Value,1,Low,1,30,NA,55.333333333333336,NA,NA,NA
Perform,28,6.117,NA,305,108,Value,2,Medium,3,100,NA,55.333333333333336,NA,NA,NA
Perform,28,5.127,NA,305,273,Value,3,High,4,270,NA,55.333333333333336,NA,NA,NA
Perform,28,4.046,NA,305,33,Value,4,Low,1,30,NA,55.333333333333336,NA,NA,NA
Perform,28,4.192,NA,305,271,Value,5,High,4,270,NA,55.333333333333336,NA,NA,NA
Perform,28,4.538,NA,305,108,Value,6,Medium,2,100,NA,55.333333333333336,NA,NA,NA
Perform,28,2.543,NA,305,272,Value,7,High,4,270,NA,55.333333333333336,NA,NA,NA
Perform,28,3.217,NA,305,103,Value,8,Medium,2,100,NA,55.333333333333336,NA,NA,NA
Perform,28,3.456,NA,305,32,Value,9,Low,2,30,NA,55.333333333333336,NA,NA,NA
Perform,28,2.186,NA,305,101,Value,10,Medium,3,100,NA,55.333333333333336,NA,NA,NA
Perform,28,1.476,NA,305,30,Value,11,Low,1,30,NA,55.333333333333336,NA,NA,NA
Perform,28,2.556,NA,305,272,Value,12,High,5,270,NA,55.333333333333336,NA,NA,NA
Perform,28,2.53,NA,305,112,Value,13,Medium,3,100,NA,55.333333333333336,NA,NA,NA
Perform,28,1.347,NA,305,271,Value,14,High,3,270,NA,55.333333333333336,NA,NA,NA
Perform,28,3.093,NA,305,36,Value,15,Low,2,30,NA,55.333333333333336,NA,NA,NA
Perform,28,1.116,NA,305,273,Value,16,High,3,270,NA,55.333333333333336,NA,NA,NA
Perform,28,2.47,NA,305,35,Value,17,Low,2,30,NA,55.333333333333336,NA,NA,NA
Perform,28,2.836,NA,305,101,Value,18,Medium,3,100,NA,55.333333333333336,NA,NA,NA
Perform,29,9.226,NA,120,32,Liking,1,Low,4,30,NA,18.333333333333332,NA,NA,NA
Perform,29,4.405,NA,120,101,Liking,2,Medium,4,100,NA,18.333333333333332,NA,NA,NA
Perform,29,5.647,NA,120,271,Liking,3,High,4,270,NA,18.333333333333332,NA,NA,NA
Perform,29,5.869,NA,120,30,Liking,4,Low,4,30,NA,18.333333333333332,NA,NA,NA
Perform,29,4.479,NA,120,273,Liking,5,High,3,270,NA,18.333333333333332,NA,NA,NA
Perform,29,11.785,NA,120,105,Liking,6,Medium,4,100,NA,18.333333333333332,NA,NA,NA
Perform,29,6.094,NA,120,273,Liking,7,High,4,270,NA,18.333333333333332,NA,NA,NA
Perform,29,5.244,NA,120,102,Liking,8,Medium,4,100,NA,18.333333333333332,NA,NA,NA
Perform,29,3.707,NA,120,32,Liking,9,Low,4,30,NA,18.333333333333332,NA,NA,NA
Perform,29,6.817,NA,120,101,Liking,10,Medium,4,100,NA,18.333333333333332,NA,NA,NA
Perform,29,7.419,NA,120,36,Liking,11,Low,3,30,NA,18.333333333333332,NA,NA,NA
Perform,29,2.779,NA,120,270,Liking,12,High,4,270,NA,18.333333333333332,NA,NA,NA
Perform,29,4.032,NA,120,101,Liking,13,Medium,3,100,NA,18.333333333333332,NA,NA,NA
Perform,29,6.03,NA,120,276,Liking,14,High,4,270,NA,18.333333333333332,NA,NA,NA
Perform,29,4.5,NA,120,32,Liking,15,Low,5,30,NA,18.333333333333332,NA,NA,NA
Perform,29,2.178,NA,120,271,Liking,16,High,3,270,NA,18.333333333333332,NA,NA,NA
Perform,29,3.412,NA,120,33,Liking,17,Low,4,30,NA,18.333333333333332,NA,NA,NA
Perform,29,2.227,NA,120,102,Liking,18,Medium,4,100,NA,18.333333333333332,NA,NA,NA
Perform,30,4.023,NA,390,33,Liking,1,Low,2,30,NA,75.33333333333333,NA,NA,NA
Perform,30,3.691,NA,390,117,Liking,2,Medium,2,100,NA,75.33333333333333,NA,NA,NA
Perform,30,4.66,NA,390,269,Liking,3,High,2,270,NA,75.33333333333333,NA,NA,NA
Perform,30,4.726,NA,390,42,Liking,4,Low,2,30,NA,75.33333333333333,NA,NA,NA
Perform,30,5.819,NA,390,270,Liking,5,High,1,270,NA,75.33333333333333,NA,NA,NA
Perform,30,4.942,NA,390,102,Liking,6,Medium,2,100,NA,75.33333333333333,NA,NA,NA
Perform,30,4.673,NA,390,271,Liking,7,High,1,270,NA,75.33333333333333,NA,NA,NA
Perform,30,2.693,NA,390,100,Liking,8,Medium,2,100,NA,75.33333333333333,NA,NA,NA
Perform,30,3.805,NA,390,30,Liking,9,Low,2,30,NA,75.33333333333333,NA,NA,NA
Perform,30,2.614,NA,390,99,Liking,10,Medium,2,100,NA,75.33333333333333,NA,NA,NA
Perform,30,2.754,NA,390,29,Liking,11,Low,2,30,NA,75.33333333333333,NA,NA,NA
Perform,30,3.46,NA,390,271,Liking,12,High,1,270,NA,75.33333333333333,NA,NA,NA
Perform,30,3.104,NA,390,102,Liking,13,Medium,2,100,NA,75.33333333333333,NA,NA,NA
Perform,30,1.754,NA,390,271,Liking,14,High,2,270,NA,75.33333333333333,NA,NA,NA
Perform,30,1.94,NA,390,31,Liking,15,Low,2,30,NA,75.33333333333333,NA,NA,NA
Perform,30,1.617,NA,390,271,Liking,16,High,2,270,NA,75.33333333333333,NA,NA,NA
Perform,30,1.417,NA,390,30,Liking,17,Low,2,30,NA,75.33333333333333,NA,NA,NA
Perform,30,1.272,NA,390,102,Liking,18,Medium,2,100,NA,75.33333333333333,NA,NA,NA
Perform,31,3.238,Female,240,33,Wanting,1,Low,3,30,22,50,NA,NA,NA
Perform,31,5.994,Female,240,106,Wanting,2,Medium,4,100,22,50,NA,NA,NA
Perform,31,5.204,Female,240,272,Wanting,3,High,1,270,22,50,NA,NA,NA
Perform,31,3.019,Female,240,31,Wanting,4,Low,3,30,22,50,NA,NA,NA
Perform,31,5.08,Female,240,273,Wanting,5,High,1,270,22,50,NA,NA,NA
Perform,31,7.744,Female,240,101,Wanting,6,Medium,1,100,22,50,NA,NA,NA
Perform,31,4.125,Female,240,270,Wanting,7,High,3,270,22,50,NA,NA,NA
Perform,31,2.733,Female,240,103,Wanting,8,Medium,3,100,22,50,NA,NA,NA
Perform,31,3.519,Female,240,32,Wanting,9,Low,2,30,22,50,NA,NA,NA
Perform,31,5.266,Female,240,102,Wanting,10,Medium,4,100,22,50,NA,NA,NA
Perform,31,4.394,Female,240,37,Wanting,11,Low,3,30,22,50,NA,NA,NA
Perform,31,4.019,Female,240,273,Wanting,12,High,1,270,22,50,NA,NA,NA
Perform,31,1.961,Female,240,103,Wanting,13,Medium,5,100,22,50,NA,NA,NA
Perform,31,3.556,Female,240,271,Wanting,14,High,3,270,22,50,NA,NA,NA
Perform,31,2.328,Female,240,34,Wanting,15,Low,3,30,22,50,NA,NA,NA
Perform,31,2.849,Female,240,267,Wanting,16,High,1,270,22,50,NA,NA,NA
Perform,31,4.072,Female,240,33,Wanting,17,Low,5,30,22,50,NA,NA,NA
Perform,31,2.997,Female,240,102,Wanting,18,Medium,2,100,22,50,NA,NA,NA
Perform,32,4.759,Male,170,31,Wanting,1,Low,4,30,18,49,NA,NA,NA
Perform,32,3.688,Male,170,100,Wanting,2,Medium,1,100,18,49,NA,NA,NA
Perform,32,2.95,Male,170,271,Wanting,3,High,1,270,18,49,NA,NA,NA
Perform,32,3.688,Male,170,36,Wanting,4,Low,1,30,18,49,NA,NA,NA
Perform,32,3.713,Male,170,272,Wanting,5,High,1,270,18,49,NA,NA,NA
Perform,32,3.776,Male,170,112,Wanting,6,Medium,1,100,18,49,NA,NA,NA
Perform,32,2.84,Male,170,271,Wanting,7,High,1,270,18,49,NA,NA,NA
Perform,32,3.188,Male,170,100,Wanting,8,Medium,1,100,18,49,NA,NA,NA
Perform,32,3.723,Male,170,30,Wanting,9,Low,1,30,18,49,NA,NA,NA
Perform,32,3.283,Male,170,98,Wanting,10,Medium,1,100,18,49,NA,NA,NA
Perform,32,3.009,Male,170,30,Wanting,11,Low,1,30,18,49,NA,NA,NA
Perform,32,4.764,Male,170,272,Wanting,12,High,1,270,18,49,NA,NA,NA
Perform,32,1.093,Male,170,101,Wanting,13,Medium,1,100,18,49,NA,NA,NA
Perform,32,2.49,Male,170,271,Wanting,14,High,1,270,18,49,NA,NA,NA
Perform,32,2.69,Male,170,30,Wanting,15,Low,1,30,18,49,NA,NA,NA
Perform,32,2.167,Male,170,272,Wanting,16,High,1,270,18,49,NA,NA,NA
Perform,32,1.514,Male,170,32,Wanting,17,Low,1,30,18,49,NA,NA,NA
Perform,32,1.953,Male,170,102,Wanting,18,Medium,1,100,18,49,NA,NA,NA
Perform,33,2.099,NA,415,34,Liking,1,Low,3,30,NA,82.66666666666667,NA,NA,NA
Perform,33,3.118,NA,415,104,Liking,2,Medium,4,100,NA,82.66666666666667,NA,NA,NA
Perform,33,2.567,NA,415,274,Liking,3,High,1,270,NA,82.66666666666667,NA,NA,NA
Perform,33,1.708,NA,415,34,Liking,4,Low,5,30,NA,82.66666666666667,NA,NA,NA
Perform,33,0.936,NA,415,274,Liking,5,High,1,270,NA,82.66666666666667,NA,NA,NA
Perform,33,1.035,NA,415,104,Liking,6,Medium,5,100,NA,82.66666666666667,NA,NA,NA
Perform,33,1.998,NA,415,266,Liking,7,High,1,270,NA,82.66666666666667,NA,NA,NA
Perform,33,2.711,NA,415,111,Liking,8,Medium,1,100,NA,82.66666666666667,NA,NA,NA
Perform,33,1.509,NA,415,33,Liking,9,Low,2,30,NA,82.66666666666667,NA,NA,NA
Perform,33,1.343,NA,415,109,Liking,10,Medium,5,100,NA,82.66666666666667,NA,NA,NA
Perform,33,1.567,NA,415,36,Liking,11,Low,3,30,NA,82.66666666666667,NA,NA,NA
Perform,33,2.248,NA,415,273,Liking,12,High,1,270,NA,82.66666666666667,NA,NA,NA
Perform,33,0.986,NA,415,103,Liking,13,Medium,4,100,NA,82.66666666666667,NA,NA,NA
Perform,33,3.161,NA,415,280,Liking,14,High,4,270,NA,82.66666666666667,NA,NA,NA
Perform,33,0.944,NA,415,51,Liking,15,Low,1,30,NA,82.66666666666667,NA,NA,NA
Perform,33,2.048,NA,415,278,Liking,16,High,1,270,NA,82.66666666666667,NA,NA,NA
Perform,33,3.412,NA,415,35,Liking,17,Low,1,30,NA,82.66666666666667,NA,NA,NA
Perform,33,2.991,NA,415,104,Liking,18,Medium,4,100,NA,82.66666666666667,NA,NA,NA
Perform,34,2.289,NA,225,35,Value,1,Low,1,30,NA,55.333333333333336,NA,NA,NA
Perform,34,2.808,NA,225,111,Value,2,Medium,2,100,NA,55.333333333333336,NA,NA,NA
Perform,34,1.949,NA,225,273,Value,3,High,3,270,NA,55.333333333333336,NA,NA,NA
Perform,34,2.52,NA,225,33,Value,4,Low,1,30,NA,55.333333333333336,NA,NA,NA
Perform,34,3.777,NA,225,274,Value,5,High,2,270,NA,55.333333333333336,NA,NA,NA
Perform,34,3.182,NA,225,104,Value,6,Medium,1,100,NA,55.333333333333336,NA,NA,NA
Perform,34,1.28,NA,225,272,Value,7,High,2,270,NA,55.333333333333336,NA,NA,NA
Perform,34,3.032,NA,225,187,Value,8,Medium,3,100,NA,55.333333333333336,NA,NA,NA
Perform,34,3.874,NA,225,37,Value,9,Low,1,30,NA,55.333333333333336,NA,NA,NA
Perform,34,1.217,NA,225,104,Value,10,Medium,2,100,NA,55.333333333333336,NA,NA,NA
Perform,34,7.478,NA,225,33,Value,11,Low,1,30,NA,55.333333333333336,NA,NA,NA
Perform,34,2.834,NA,225,270,Value,12,High,3,270,NA,55.333333333333336,NA,NA,NA
Perform,34,1.594,NA,225,104,Value,13,Medium,3,100,NA,55.333333333333336,NA,NA,NA
Perform,34,1.723,NA,225,273,Value,14,High,3,270,NA,55.333333333333336,NA,NA,NA
Perform,34,0.764,NA,225,45,Value,15,Low,2,30,NA,55.333333333333336,NA,NA,NA
Perform,34,2.658,NA,225,272,Value,16,High,3,270,NA,55.333333333333336,NA,NA,NA
Perform,34,1.081,NA,225,34,Value,17,Low,2,30,NA,55.333333333333336,NA,NA,NA
Perform,34,3.547,NA,225,103,Value,18,Medium,3,100,NA,55.333333333333336,NA,NA,NA
Perform,35,2.916,Female,240,32,Wanting,1,Low,2,30,21,51.666666666666664,NA,NA,NA
Perform,35,2.433,Female,240,100,Wanting,2,Medium,3,100,21,51.666666666666664,NA,NA,NA
Perform,35,3.152,Female,240,271,Wanting,3,High,2,270,21,51.666666666666664,NA,NA,NA
Perform,35,2.965,Female,240,34,Wanting,4,Low,3,30,21,51.666666666666664,NA,NA,NA
Perform,35,5.66,Female,240,271,Wanting,5,High,3,270,21,51.666666666666664,NA,NA,NA
Perform,35,3.917,Female,240,103,Wanting,6,Medium,3,100,21,51.666666666666664,NA,NA,NA
Perform,35,1.933,Female,240,271,Wanting,7,High,4,270,21,51.666666666666664,NA,NA,NA
Perform,35,2.348,Female,240,101,Wanting,8,Medium,2,100,21,51.666666666666664,NA,NA,NA
Perform,35,2.158,Female,240,32,Wanting,9,Low,4,30,21,51.666666666666664,NA,NA,NA
Perform,35,1.757,Female,240,103,Wanting,10,Medium,2,100,21,51.666666666666664,NA,NA,NA
Perform,35,2.328,Female,240,39,Wanting,11,Low,3,30,21,51.666666666666664,NA,NA,NA
Perform,35,1.781,Female,240,271,Wanting,12,High,4,270,21,51.666666666666664,NA,NA,NA
Perform,35,2.884,Female,240,101,Wanting,13,Medium,2,100,21,51.666666666666664,NA,NA,NA
Perform,35,3.379,Female,240,270,Wanting,14,High,2,270,21,51.666666666666664,NA,NA,NA
Perform,35,3.251,Female,240,30,Wanting,15,Low,3,30,21,51.666666666666664,NA,NA,NA
Perform,35,2.847,Female,240,272,Wanting,16,High,2,270,21,51.666666666666664,NA,NA,NA
Perform,35,3.998,Female,240,30,Wanting,17,Low,2,30,21,51.666666666666664,NA,NA,NA
Perform,35,2.581,Female,240,102,Wanting,18,Medium,3,100,21,51.666666666666664,NA,NA,NA
Perform,36,8.596,Male,320,35,Wanting,1,Low,1,30,28,65.33333333333333,NA,NA,NA
Perform,36,3.666,Male,320,110,Wanting,2,Medium,1,100,28,65.33333333333333,NA,NA,NA
Perform,36,9.196,Male,320,275,Wanting,3,High,1,270,28,65.33333333333333,NA,NA,NA
Perform,36,5.74,Male,320,34,Wanting,4,Low,4,30,28,65.33333333333333,NA,NA,NA
Perform,36,3.749,Male,320,275,Wanting,5,High,2,270,28,65.33333333333333,NA,NA,NA
Perform,36,5.514,Male,320,104,Wanting,6,Medium,1,100,28,65.33333333333333,NA,NA,NA
Perform,36,4.81,Male,320,276,Wanting,7,High,2,270,28,65.33333333333333,NA,NA,NA
Perform,36,7.764,Male,320,103,Wanting,8,Medium,2,100,28,65.33333333333333,NA,NA,NA
Perform,36,6.889,Male,320,35,Wanting,9,Low,4,30,28,65.33333333333333,NA,NA,NA
Perform,36,4.439,Male,320,105,Wanting,10,Medium,1,100,28,65.33333333333333,NA,NA,NA
Perform,36,5.164,Male,320,36,Wanting,11,Low,3,30,28,65.33333333333333,NA,NA,NA
Perform,36,3.724,Male,320,275,Wanting,12,High,5,270,28,65.33333333333333,NA,NA,NA
Perform,36,4.796,Male,320,104,Wanting,13,Medium,2,100,28,65.33333333333333,NA,NA,NA
Perform,36,4.123,Male,320,280,Wanting,14,High,1,270,28,65.33333333333333,NA,NA,NA
Perform,36,4.648,Male,320,41,Wanting,15,Low,2,30,28,65.33333333333333,NA,NA,NA
Perform,36,3.331,Male,320,276,Wanting,16,High,5,270,28,65.33333333333333,NA,NA,NA
Perform,36,5.756,Male,320,34,Wanting,17,Low,5,30,28,65.33333333333333,NA,NA,NA
Perform,36,4.348,Male,320,105,Wanting,18,Medium,4,100,28,65.33333333333333,NA,NA,NA
Perform,37,5.205,Male,210,33,Wanting,1,Low,1,30,18,47.666666666666664,NA,NA,NA
Perform,37,3.559,Male,210,103,Wanting,2,Medium,1,100,18,47.666666666666664,NA,NA,NA
Perform,37,7.653,Male,210,283,Wanting,3,High,2,270,18,47.666666666666664,NA,NA,NA
Perform,37,4.358,Male,210,37,Wanting,4,Low,1,30,18,47.666666666666664,NA,NA,NA
Perform,37,4.257,Male,210,272,Wanting,5,High,1,270,18,47.666666666666664,NA,NA,NA
Perform,37,7.348,Male,210,104,Wanting,6,Medium,1,100,18,47.666666666666664,NA,NA,NA
Perform,37,3.004,Male,210,273,Wanting,7,High,1,270,18,47.666666666666664,NA,NA,NA
Perform,37,4.84,Male,210,110,Wanting,8,Medium,1,100,18,47.666666666666664,NA,NA,NA
Perform,37,3.565,Male,210,35,Wanting,9,Low,1,30,18,47.666666666666664,NA,NA,NA
Perform,37,5.529,Male,210,103,Wanting,10,Medium,1,100,18,47.666666666666664,NA,NA,NA
Perform,37,3.482,Male,210,38,Wanting,11,Low,1,30,18,47.666666666666664,NA,NA,NA
Perform,37,3.443,Male,210,273,Wanting,12,High,2,270,18,47.666666666666664,NA,NA,NA
Perform,37,2.001,Male,210,104,Wanting,13,Medium,1,100,18,47.666666666666664,NA,NA,NA
Perform,37,8.685,Male,210,268,Wanting,14,High,1,270,18,47.666666666666664,NA,NA,NA
Perform,37,2.55,Male,210,36,Wanting,15,Low,1,30,18,47.666666666666664,NA,NA,NA
Perform,37,6.263,Male,210,273,Wanting,16,High,1,270,18,47.666666666666664,NA,NA,NA
Perform,37,2.215,Male,210,38,Wanting,17,Low,1,30,18,47.666666666666664,NA,NA,NA
Perform,37,2.543,Male,210,104,Wanting,18,Medium,1,100,18,47.666666666666664,NA,NA,NA
Perform,38,3.527,Female,350,33,Wanting,1,Low,2,30,19,74.66666666666667,NA,NA,NA
Perform,38,2.857,Female,350,102,Wanting,2,Medium,4,100,19,74.66666666666667,NA,NA,NA
Perform,38,2.946,Female,350,276,Wanting,3,High,5,270,19,74.66666666666667,NA,NA,NA
Perform,38,5.395,Female,350,34,Wanting,4,Low,1,30,19,74.66666666666667,NA,NA,NA
Perform,38,1.892,Female,350,274,Wanting,5,High,5,270,19,74.66666666666667,NA,NA,NA
Perform,38,1.583,Female,350,103,Wanting,6,Medium,3,100,19,74.66666666666667,NA,NA,NA
Perform,38,2.066,Female,350,275,Wanting,7,High,4,270,19,74.66666666666667,NA,NA,NA
Perform,38,2.201,Female,350,105,Wanting,8,Medium,3,100,19,74.66666666666667,NA,NA,NA
Perform,38,5.248,Female,350,34,Wanting,9,Low,2,30,19,74.66666666666667,NA,NA,NA
Perform,38,2.762,Female,350,103,Wanting,10,Medium,3,100,19,74.66666666666667,NA,NA,NA
Perform,38,3.884,Female,350,39,Wanting,11,Low,2,30,19,74.66666666666667,NA,NA,NA
Perform,38,2.11,Female,350,275,Wanting,12,High,4,270,19,74.66666666666667,NA,NA,NA
Perform,38,1.837,Female,350,105,Wanting,13,Medium,3,100,19,74.66666666666667,NA,NA,NA
Perform,38,1.968,Female,350,274,Wanting,14,High,5,270,19,74.66666666666667,NA,NA,NA
Perform,38,1.718,Female,350,35,Wanting,15,Low,1,30,19,74.66666666666667,NA,NA,NA
Perform,38,2.448,Female,350,275,Wanting,16,High,4,270,19,74.66666666666667,NA,NA,NA
Perform,38,2.33,Female,350,31,Wanting,17,Low,2,30,19,74.66666666666667,NA,NA,NA
Perform,38,2.789,Female,350,104,Wanting,18,Medium,2,100,19,74.66666666666667,NA,NA,NA
Perform,39,3.784,Female,425,32,Wanting,1,Low,2,30,21,87.33333333333333,NA,NA,NA
Perform,39,4.055,Female,425,101,Wanting,2,Medium,1,100,21,87.33333333333333,NA,NA,NA
Perform,39,5.212,Female,425,271,Wanting,3,High,1,270,21,87.33333333333333,NA,NA,NA
Perform,39,3.447,Female,425,36,Wanting,4,Low,3,30,21,87.33333333333333,NA,NA,NA
Perform,39,3.1,Female,425,272,Wanting,5,High,3,270,21,87.33333333333333,NA,NA,NA
Perform,39,2.408,Female,425,100,Wanting,6,Medium,3,100,21,87.33333333333333,NA,NA,NA
Perform,39,11.211,Female,425,272,Wanting,7,High,3,270,21,87.33333333333333,NA,NA,NA
Perform,39,4.945,Female,425,105,Wanting,8,Medium,5,100,21,87.33333333333333,NA,NA,NA
Perform,39,3.712,Female,425,31,Wanting,9,Low,5,30,21,87.33333333333333,NA,NA,NA
Perform,39,2.424,Female,425,111,Wanting,10,Medium,3,100,21,87.33333333333333,NA,NA,NA
Perform,39,3.09,Female,425,30,Wanting,11,Low,3,30,21,87.33333333333333,NA,NA,NA
Perform,39,6.248,Female,425,270,Wanting,12,High,3,270,21,87.33333333333333,NA,NA,NA
Perform,39,6.226,Female,425,102,Wanting,13,Medium,1,100,21,87.33333333333333,NA,NA,NA
Perform,39,5.016,Female,425,275,Wanting,14,High,1,270,21,87.33333333333333,NA,NA,NA
Perform,39,4.948,Female,425,34,Wanting,15,Low,1,30,21,87.33333333333333,NA,NA,NA
Perform,39,4.835,Female,425,273,Wanting,16,High,1,270,21,87.33333333333333,NA,NA,NA
Perform,39,4.057,Female,425,30,Wanting,17,Low,5,30,21,87.33333333333333,NA,NA,NA
Perform,39,6.15,Female,425,103,Wanting,18,Medium,2,100,21,87.33333333333333,NA,NA,NA
Perform,40,3.888,Female,225,29,Wanting,1,Low,4,30,21,41,NA,NA,NA
Perform,40,3.798,Female,225,99,Wanting,2,Medium,1,100,21,41,NA,NA,NA
Perform,40,2.703,Female,225,267,Wanting,3,High,1,270,21,41,NA,NA,NA
Perform,40,1.645,Female,225,27,Wanting,4,Low,4,30,21,41,NA,NA,NA
Perform,40,8.848,Female,225,273,Wanting,5,High,3,270,21,41,NA,NA,NA
Perform,40,5.142,Female,225,98,Wanting,6,Medium,4,100,21,41,NA,NA,NA
Perform,40,4.204,Female,225,269,Wanting,7,High,2,270,21,41,NA,NA,NA
Perform,40,4.757,Female,225,102,Wanting,8,Medium,5,100,21,41,NA,NA,NA
Perform,40,1.867,Female,225,80,Wanting,9,Low,3,30,21,41,NA,NA,NA
Perform,40,1.606,Female,225,99,Wanting,10,Medium,4,100,21,41,NA,NA,NA
Perform,40,1.017,Female,225,30,Wanting,11,Low,4,30,21,41,NA,NA,NA
Perform,40,3.849,Female,225,273,Wanting,12,High,4,270,21,41,NA,NA,NA
Perform,40,12.363,Female,225,118,Wanting,13,Medium,3,100,21,41,NA,NA,NA
Perform,40,2.076,Female,225,268,Wanting,14,High,3,270,21,41,NA,NA,NA
Perform,40,0.834,Female,225,27,Wanting,15,Low,4,30,21,41,NA,NA,NA
Perform,40,3.831,Female,225,268,Wanting,16,High,4,270,21,41,NA,NA,NA
Perform,40,1.424,Female,225,32,Wanting,17,Low,4,30,21,41,NA,NA,NA
Perform,40,2.19,Female,225,101,Wanting,18,Medium,3,100,21,41,NA,NA,NA
Perform,41,8.794,NA,305,34,Value,1,Low,1,30,NA,57.333333333333336,NA,NA,NA
Perform,41,2.466,NA,305,105,Value,2,Medium,4,100,NA,57.333333333333336,NA,NA,NA
Perform,41,1.368,NA,305,278,Value,3,High,5,270,NA,57.333333333333336,NA,NA,NA
Perform,41,4.158,NA,305,35,Value,4,Low,1,30,NA,57.333333333333336,NA,NA,NA
Perform,41,5.002,NA,305,275,Value,5,High,5,270,NA,57.333333333333336,NA,NA,NA
Perform,41,9.751,NA,305,110,Value,6,Medium,2,100,NA,57.333333333333336,NA,NA,NA
Perform,41,1.046,NA,305,272,Value,7,High,5,270,NA,57.333333333333336,NA,NA,NA
Perform,41,4.078,NA,305,108,Value,8,Medium,2,100,NA,57.333333333333336,NA,NA,NA
Perform,41,1.287,NA,305,36,Value,9,Low,1,30,NA,57.333333333333336,NA,NA,NA
Perform,41,2.787,NA,305,103,Value,10,Medium,3,100,NA,57.333333333333336,NA,NA,NA
Perform,41,0.994,NA,305,30,Value,11,Low,1,30,NA,57.333333333333336,NA,NA,NA
Perform,41,4.662,NA,305,273,Value,12,High,4,270,NA,57.333333333333336,NA,NA,NA
Perform,41,2.597,NA,305,106,Value,13,Medium,2,100,NA,57.333333333333336,NA,NA,NA
Perform,41,1.985,NA,305,272,Value,14,High,5,270,NA,57.333333333333336,NA,NA,NA
Perform,41,1.072,NA,305,35,Value,15,Low,1,30,NA,57.333333333333336,NA,NA,NA
Perform,41,1.584,NA,305,272,Value,16,High,5,270,NA,57.333333333333336,NA,NA,NA
Perform,41,3.206,NA,305,39,Value,17,Low,1,30,NA,57.333333333333336,NA,NA,NA
Perform,41,1.6,NA,305,104,Value,18,Medium,2,100,NA,57.333333333333336,NA,NA,NA
Perform,42,2.877,NA,350,33,Value,1,Low,2,30,NA,72,NA,NA,NA
Perform,42,3.588,NA,350,103,Value,2,Medium,1,100,NA,72,NA,NA,NA
Perform,42,4.49,NA,350,272,Value,3,High,2,270,NA,72,NA,NA,NA
Perform,42,1.931,NA,350,33,Value,4,Low,3,30,NA,72,NA,NA,NA
Perform,42,2.056,NA,350,272,Value,5,High,3,270,NA,72,NA,NA,NA
Perform,42,2.42,NA,350,103,Value,6,Medium,2,100,NA,72,NA,NA,NA
Perform,42,5.813,NA,350,273,Value,7,High,3,270,NA,72,NA,NA,NA
Perform,42,2.253,NA,350,103,Value,8,Medium,2,100,NA,72,NA,NA,NA
Perform,42,3.229,NA,350,31,Value,9,Low,1,30,NA,72,NA,NA,NA
Perform,42,2.398,NA,350,104,Value,10,Medium,2,100,NA,72,NA,NA,NA
Perform,42,2.715,NA,350,32,Value,11,Low,1,30,NA,72,NA,NA,NA
Perform,42,3.167,NA,350,275,Value,12,High,1,270,NA,72,NA,NA,NA
Perform,42,2.168,NA,350,105,Value,13,Medium,1,100,NA,72,NA,NA,NA
Perform,42,3.381,NA,350,274,Value,14,High,2,270,NA,72,NA,NA,NA
Perform,42,3.076,NA,350,33,Value,15,Low,3,30,NA,72,NA,NA,NA
Perform,42,2.124,NA,350,277,Value,16,High,2,270,NA,72,NA,NA,NA
Perform,42,2.624,NA,350,34,Value,17,Low,2,30,NA,72,NA,NA,NA
Perform,42,3.879,NA,350,109,Value,18,Medium,3,100,NA,72,NA,NA,NA
Perform,43,4.799,NA,330,31,Value,1,Low,1,30,NA,65.33333333333333,NA,NA,NA
Perform,43,8.259,NA,330,102,Value,2,Medium,4,100,NA,65.33333333333333,NA,NA,NA
Perform,43,13.488,NA,330,272,Value,3,High,1,270,NA,65.33333333333333,NA,NA,NA
Perform,43,3.182,NA,330,32,Value,4,Low,2,30,NA,65.33333333333333,NA,NA,NA
Perform,43,19.585,NA,330,278,Value,5,High,5,270,NA,65.33333333333333,NA,NA,NA
Perform,43,18.694,NA,330,103,Value,6,Medium,3,100,NA,65.33333333333333,NA,NA,NA
Perform,43,16.516,NA,330,273,Value,7,High,2,270,NA,65.33333333333333,NA,NA,NA
Perform,43,16.579,NA,330,103,Value,8,Medium,4,100,NA,65.33333333333333,NA,NA,NA
Perform,43,23.96,NA,330,35,Value,9,Low,3,30,NA,65.33333333333333,NA,NA,NA
Perform,43,17.588,NA,330,100,Value,10,Medium,3,100,NA,65.33333333333333,NA,NA,NA
Perform,43,16.03,NA,330,33,Value,11,Low,2,30,NA,65.33333333333333,NA,NA,NA
Perform,43,17.337,NA,330,272,Value,12,High,3,270,NA,65.33333333333333,NA,NA,NA
Perform,43,13.194,NA,330,103,Value,13,Medium,4,100,NA,65.33333333333333,NA,NA,NA
Perform,43,16.658,NA,330,275,Value,14,High,3,270,NA,65.33333333333333,NA,NA,NA
Perform,43,15.156,NA,330,32,Value,15,Low,3,30,NA,65.33333333333333,NA,NA,NA
Perform,43,25.35,NA,330,273,Value,16,High,3,270,NA,65.33333333333333,NA,NA,NA
Perform,43,19.458,NA,330,32,Value,17,Low,3,30,NA,65.33333333333333,NA,NA,NA
Perform,43,28.276,NA,330,102,Value,18,Medium,2,100,NA,65.33333333333333,NA,NA,NA
Perform,44,2.279,NA,375,33,Liking,1,Low,3,30,NA,67.66666666666667,NA,NA,NA
Perform,44,6.398,NA,375,101,Liking,2,Medium,3,100,NA,67.66666666666667,NA,NA,NA
Perform,44,3.942,NA,375,273,Liking,3,High,1,270,NA,67.66666666666667,NA,NA,NA
Perform,44,2.869,NA,375,28,Liking,4,Low,4,30,NA,67.66666666666667,NA,NA,NA
Perform,44,3.513,NA,375,273,Liking,5,High,1,270,NA,67.66666666666667,NA,NA,NA
Perform,44,4.792,NA,375,101,Liking,6,Medium,3,100,NA,67.66666666666667,NA,NA,NA
Perform,44,2.302,NA,375,270,Liking,7,High,1,270,NA,67.66666666666667,NA,NA,NA
Perform,44,2.765,NA,375,101,Liking,8,Medium,3,100,NA,67.66666666666667,NA,NA,NA
Perform,44,3.119,NA,375,31,Liking,9,Low,4,30,NA,67.66666666666667,NA,NA,NA
Perform,44,4.131,NA,375,101,Liking,10,Medium,3,100,NA,67.66666666666667,NA,NA,NA
Perform,44,4.404,NA,375,37,Liking,11,Low,4,30,NA,67.66666666666667,NA,NA,NA
Perform,44,6.879,NA,375,274,Liking,12,High,1,270,NA,67.66666666666667,NA,NA,NA
Perform,44,3.678,NA,375,102,Liking,13,Medium,2,100,NA,67.66666666666667,NA,NA,NA
Perform,44,4.466,NA,375,274,Liking,14,High,2,270,NA,67.66666666666667,NA,NA,NA
Perform,44,2.184,NA,375,32,Liking,15,Low,3,30,NA,67.66666666666667,NA,NA,NA
Perform,44,3.309,NA,375,273,Liking,16,High,3,270,NA,67.66666666666667,NA,NA,NA
Perform,44,3.368,NA,375,32,Liking,17,Low,4,30,NA,67.66666666666667,NA,NA,NA
Perform,44,1.343,NA,375,103,Liking,18,Medium,1,100,NA,67.66666666666667,NA,NA,NA
Perform,45,5.485,Female,245,38,Wanting,1,Low,3,30,23,48,NA,NA,NA
Perform,45,4.194,Female,245,161,Wanting,2,Medium,4,100,23,48,NA,NA,NA
Perform,45,6.554,Female,245,273,Wanting,3,High,4,270,23,48,NA,NA,NA
Perform,45,5.798,Female,245,35,Wanting,4,Low,3,30,23,48,NA,NA,NA
Perform,45,3.902,Female,245,272,Wanting,5,High,4,270,23,48,NA,NA,NA
Perform,45,4.765,Female,245,103,Wanting,6,Medium,4,100,23,48,NA,NA,NA
Perform,45,5.389,Female,245,273,Wanting,7,High,4,270,23,48,NA,NA,NA
Perform,45,2.32,Female,245,101,Wanting,8,Medium,3,100,23,48,NA,NA,NA
Perform,45,11.729,Female,245,37,Wanting,9,Low,3,30,23,48,NA,NA,NA
Perform,45,6.027,Female,245,100,Wanting,10,Medium,3,100,23,48,NA,NA,NA
Perform,45,3.887,Female,245,31,Wanting,11,Low,3,30,23,48,NA,NA,NA
Perform,45,3.616,Female,245,274,Wanting,12,High,3,270,23,48,NA,NA,NA
Perform,45,3.244,Female,245,102,Wanting,13,Medium,4,100,23,48,NA,NA,NA
Perform,45,4.614,Female,245,273,Wanting,14,High,3,270,23,48,NA,NA,NA
Perform,45,1.918,Female,245,33,Wanting,15,Low,3,30,23,48,NA,NA,NA
Perform,45,3.279,Female,245,277,Wanting,16,High,3,270,23,48,NA,NA,NA
Perform,45,5.018,Female,245,36,Wanting,17,Low,1,30,23,48,NA,NA,NA
Perform,45,2.301,Female,245,102,Wanting,18,Medium,1,100,23,48,NA,NA,NA
Perform,46,2.842,NA,415,36,Liking,1,Low,4,30,NA,80,NA,NA,NA
Perform,46,3.308,NA,415,108,Liking,2,Medium,1,100,NA,80,NA,NA,NA
Perform,46,4.046,NA,415,304,Liking,3,High,1,270,NA,80,NA,NA,NA
Perform,46,5.331,NA,415,70,Liking,4,Low,1,30,NA,80,NA,NA,NA
Perform,46,4.313,NA,415,286,Liking,5,High,3,270,NA,80,NA,NA,NA
Perform,46,5.696,NA,415,105,Liking,6,Medium,2,100,NA,80,NA,NA,NA
Perform,46,4.124,NA,415,311,Liking,7,High,1,270,NA,80,NA,NA,NA
Perform,46,3.457,NA,415,102,Liking,8,Medium,1,100,NA,80,NA,NA,NA
Perform,46,3.217,NA,415,32,Liking,9,Low,2,30,NA,80,NA,NA,NA
Perform,46,2.553,NA,415,100,Liking,10,Medium,4,100,NA,80,NA,NA,NA
Perform,46,3.329,NA,415,46,Liking,11,Low,1,30,NA,80,NA,NA,NA
Perform,46,2.232,NA,415,271,Liking,12,High,3,270,NA,80,NA,NA,NA
Perform,46,1.192,NA,415,104,Liking,13,Medium,3,100,NA,80,NA,NA,NA
Perform,46,2.443,NA,415,273,Liking,14,High,1,270,NA,80,NA,NA,NA
Perform,46,3.18,NA,415,34,Liking,15,Low,3,30,NA,80,NA,NA,NA
Perform,46,3.119,NA,415,275,Liking,16,High,4,270,NA,80,NA,NA,NA
Perform,46,2,NA,415,32,Liking,17,Low,2,30,NA,80,NA,NA,NA
Perform,46,1.757,NA,415,105,Liking,18,Medium,4,100,NA,80,NA,NA,NA
Perform,47,5.594,Female,415,31,Wanting,1,Low,5,30,25,87.33333333333333,NA,NA,NA
Perform,47,5.248,Female,415,103,Wanting,2,Medium,1,100,25,87.33333333333333,NA,NA,NA
Perform,47,5.281,Female,415,275,Wanting,3,High,1,270,25,87.33333333333333,NA,NA,NA
Perform,47,2.467,Female,415,34,Wanting,4,Low,3,30,25,87.33333333333333,NA,NA,NA
Perform,47,6.464,Female,415,273,Wanting,5,High,1,270,25,87.33333333333333,NA,NA,NA
Perform,47,2.432,Female,415,104,Wanting,6,Medium,1,100,25,87.33333333333333,NA,NA,NA
Perform,47,9.659,Female,415,270,Wanting,7,High,1,270,25,87.33333333333333,NA,NA,NA
Perform,47,5.048,Female,415,102,Wanting,8,Medium,2,100,25,87.33333333333333,NA,NA,NA
Perform,47,4.079,Female,415,33,Wanting,9,Low,1,30,25,87.33333333333333,NA,NA,NA
Perform,47,8.224,Female,415,102,Wanting,10,Medium,1,100,25,87.33333333333333,NA,NA,NA
Perform,47,6.631,Female,415,34,Wanting,11,Low,4,30,25,87.33333333333333,NA,NA,NA
Perform,47,2.598,Female,415,272,Wanting,12,High,5,270,25,87.33333333333333,NA,NA,NA
Perform,47,2.016,Female,415,104,Wanting,13,Medium,5,100,25,87.33333333333333,NA,NA,NA
Perform,47,5.429,Female,415,265,Wanting,14,High,3,270,25,87.33333333333333,NA,NA,NA
Perform,47,2.546,Female,415,35,Wanting,15,Low,4,30,25,87.33333333333333,NA,NA,NA
Perform,47,3.441,Female,415,272,Wanting,16,High,1,270,25,87.33333333333333,NA,NA,NA
Perform,47,3.398,Female,415,35,Wanting,17,Low,1,30,25,87.33333333333333,NA,NA,NA
Perform,47,4.006,Female,415,102,Wanting,18,Medium,2,100,25,87.33333333333333,NA,NA,NA
Perform,49,4.832,NA,295,29,Liking,1,Low,4,30,NA,54,NA,NA,NA
Perform,49,4.619,NA,295,98,Liking,2,Medium,1,100,NA,54,NA,NA,NA
Perform,49,4.392,NA,295,272,Liking,3,High,2,270,NA,54,NA,NA,NA
Perform,49,3.252,NA,295,30,Liking,4,Low,2,30,NA,54,NA,NA,NA
Perform,49,2.991,NA,295,267,Liking,5,High,3,270,NA,54,NA,NA,NA
Perform,49,3.742,NA,295,100,Liking,6,Medium,5,100,NA,54,NA,NA,NA
Perform,49,3.839,NA,295,270,Liking,7,High,4,270,NA,54,NA,NA,NA
Perform,49,3.985,NA,295,96,Liking,8,Medium,2,100,NA,54,NA,NA,NA
Perform,49,4.192,NA,295,29,Liking,9,Low,2,30,NA,54,NA,NA,NA
Perform,49,4.323,NA,295,100,Liking,10,Medium,4,100,NA,54,NA,NA,NA
Perform,49,3.479,NA,295,28,Liking,11,Low,4,30,NA,54,NA,NA,NA
Perform,49,4.393,NA,295,269,Liking,12,High,2,270,NA,54,NA,NA,NA
Perform,49,2.332,NA,295,95,Liking,13,Medium,3,100,NA,54,NA,NA,NA
Perform,49,3.647,NA,295,251,Liking,14,High,2,270,NA,54,NA,NA,NA
Perform,49,3.5,NA,295,29,Liking,15,Low,1,30,NA,54,NA,NA,NA
Perform,49,3.744,NA,295,257,Liking,16,High,5,270,NA,54,NA,NA,NA
Perform,49,3.1,NA,295,30,Liking,17,Low,4,30,NA,54,NA,NA,NA
Perform,49,3.856,NA,295,105,Liking,18,Medium,2,100,NA,54,NA,NA,NA
Perform,50,3.597,NA,165,27,Value,1,Low,1,30,NA,43,NA,NA,NA
Perform,50,3.246,NA,165,98,Value,2,Medium,2,100,NA,43,NA,NA,NA
Perform,50,2.56,NA,165,266,Value,3,High,4,270,NA,43,NA,NA,NA
Perform,50,1.844,NA,165,31,Value,4,Low,1,30,NA,43,NA,NA,NA
Perform,50,2.862,NA,165,254,Value,5,High,4,270,NA,43,NA,NA,NA
Perform,50,7.032,NA,165,100,Value,6,Medium,2,100,NA,43,NA,NA,NA
Perform,50,2.08,NA,165,258,Value,7,High,4,270,NA,43,NA,NA,NA
Perform,50,1.213,NA,165,94,Value,8,Medium,1,100,NA,43,NA,NA,NA
Perform,50,2.872,NA,165,29,Value,9,Low,1,30,NA,43,NA,NA,NA
Perform,50,3.162,NA,165,102,Value,10,Medium,2,100,NA,43,NA,NA,NA
Perform,50,1.608,NA,165,30,Value,11,Low,1,30,NA,43,NA,NA,NA
Perform,50,1.472,NA,165,267,Value,12,High,3,270,NA,43,NA,NA,NA
Perform,50,2.581,NA,165,99,Value,13,Medium,1,100,NA,43,NA,NA,NA
Perform,50,2.49,NA,165,254,Value,14,High,4,270,NA,43,NA,NA,NA
Perform,50,1.953,NA,165,46,Value,15,Low,1,30,NA,43,NA,NA,NA
Perform,50,2.686,NA,165,265,Value,16,High,4,270,NA,43,NA,NA,NA
Perform,50,1.848,NA,165,30,Value,17,Low,1,30,NA,43,NA,NA,NA
Perform,50,4.254,NA,165,100,Value,18,Medium,2,100,NA,43,NA,NA,NA
Perform,51,4.779,NA,365,35,Value,1,Low,4,30,NA,65.66666666666667,NA,NA,NA
Perform,51,4.556,NA,365,103,Value,2,Medium,4,100,NA,65.66666666666667,NA,NA,NA
Perform,51,2.594,NA,365,275,Value,3,High,5,270,NA,65.66666666666667,NA,NA,NA
Perform,51,3.454,NA,365,33,Value,4,Low,2,30,NA,65.66666666666667,NA,NA,NA
Perform,51,2.739,NA,365,273,Value,5,High,5,270,NA,65.66666666666667,NA,NA,NA
Perform,51,0.898,NA,365,103,Value,6,Medium,3,100,NA,65.66666666666667,NA,NA,NA
Perform,51,3.045,NA,365,271,Value,7,High,4,270,NA,65.66666666666667,NA,NA,NA
Perform,51,10.393,NA,365,103,Value,8,Medium,3,100,NA,65.66666666666667,NA,NA,NA
Perform,51,2.453,NA,365,36,Value,9,Low,3,30,NA,65.66666666666667,NA,NA,NA
Perform,51,4.043,NA,365,104,Value,10,Medium,2,100,NA,65.66666666666667,NA,NA,NA
Perform,51,2.777,NA,365,33,Value,11,Low,4,30,NA,65.66666666666667,NA,NA,NA
Perform,51,1.119,NA,365,274,Value,12,High,3,270,NA,65.66666666666667,NA,NA,NA
Perform,51,2.295,NA,365,104,Value,13,Medium,5,100,NA,65.66666666666667,NA,NA,NA
Perform,51,6.493,NA,365,275,Value,14,High,1,270,NA,65.66666666666667,NA,NA,NA
Perform,51,2.385,NA,365,34,Value,15,Low,3,30,NA,65.66666666666667,NA,NA,NA
Perform,51,3.243,NA,365,273,Value,16,High,1,270,NA,65.66666666666667,NA,NA,NA
Perform,51,2.003,NA,365,31,Value,17,Low,2,30,NA,65.66666666666667,NA,NA,NA
Perform,51,10.183,NA,365,103,Value,18,Medium,3,100,NA,65.66666666666667,NA,NA,NA
Perform,52,5.584,Male,360,37,Wanting,1,Low,2,30,25,71.33333333333333,NA,NA,NA
Perform,52,7.507,Male,360,100,Wanting,2,Medium,3,100,25,71.33333333333333,NA,NA,NA
Perform,52,4.741,Male,360,276,Wanting,3,High,2,270,25,71.33333333333333,NA,NA,NA
Perform,52,6.362,Male,360,31,Wanting,4,Low,3,30,25,71.33333333333333,NA,NA,NA
Perform,52,2.015,Male,360,273,Wanting,5,High,4,270,25,71.33333333333333,NA,NA,NA
Perform,52,2.382,Male,360,101,Wanting,6,Medium,3,100,25,71.33333333333333,NA,NA,NA
Perform,52,3.512,Male,360,278,Wanting,7,High,4,270,25,71.33333333333333,NA,NA,NA
Perform,52,3.172,Male,360,101,Wanting,8,Medium,4,100,25,71.33333333333333,NA,NA,NA
Perform,52,3.213,Male,360,32,Wanting,9,Low,4,30,25,71.33333333333333,NA,NA,NA
Perform,52,2.304,Male,360,102,Wanting,10,Medium,5,100,25,71.33333333333333,NA,NA,NA
Perform,52,1.395,Male,360,34,Wanting,11,Low,3,30,25,71.33333333333333,NA,NA,NA
Perform,52,3.733,Male,360,276,Wanting,12,High,2,270,25,71.33333333333333,NA,NA,NA
Perform,52,3.729,Male,360,103,Wanting,13,Medium,4,100,25,71.33333333333333,NA,NA,NA
Perform,52,2.07,Male,360,154,Wanting,14,High,4,270,25,71.33333333333333,NA,NA,NA
Perform,52,2.78,Male,360,37,Wanting,15,Low,2,30,25,71.33333333333333,NA,NA,NA
Perform,52,3.916,Male,360,274,Wanting,16,High,5,270,25,71.33333333333333,NA,NA,NA
Perform,52,5.289,Male,360,33,Wanting,17,Low,2,30,25,71.33333333333333,NA,NA,NA
Perform,52,2.585,Male,360,102,Wanting,18,Medium,2,100,25,71.33333333333333,NA,NA,NA
Perform,54,5.748,NA,455,33,Value,1,Low,2,30,NA,94,NA,NA,NA
Perform,54,5.163,NA,455,103,Value,2,Medium,3,100,NA,94,NA,NA,NA
Perform,54,7.531,NA,455,285,Value,3,High,4,270,NA,94,NA,NA,NA
Perform,54,13.48,NA,455,46,Value,4,Low,2,30,NA,94,NA,NA,NA
Perform,54,3.592,NA,455,276,Value,5,High,5,270,NA,94,NA,NA,NA
Perform,54,2.019,NA,455,111,Value,6,Medium,4,100,NA,94,NA,NA,NA
Perform,54,2.374,NA,455,306,Value,7,High,5,270,NA,94,NA,NA,NA
Perform,54,19.852,NA,455,142,Value,8,Medium,4,100,NA,94,NA,NA,NA
Perform,54,2.064,NA,455,39,Value,9,Low,3,30,NA,94,NA,NA,NA
Perform,54,3.465,NA,455,118,Value,10,Medium,5,100,NA,94,NA,NA,NA
Perform,54,6.526,NA,455,65,Value,11,Low,5,30,NA,94,NA,NA,NA
Perform,54,1.5,NA,455,274,Value,12,High,5,270,NA,94,NA,NA,NA
Perform,54,3.116,NA,455,112,Value,13,Medium,5,100,NA,94,NA,NA,NA
Perform,54,6.063,NA,455,275,Value,14,High,5,270,NA,94,NA,NA,NA
Perform,54,2.04,NA,455,42,Value,15,Low,5,30,NA,94,NA,NA,NA
Perform,54,6.328,NA,455,275,Value,16,High,5,270,NA,94,NA,NA,NA
Perform,54,57.603,NA,455,111,Value,17,Low,5,30,NA,94,NA,NA,NA
Perform,54,2.556,NA,455,106,Value,18,Medium,5,100,NA,94,NA,NA,NA
Perform,55,1.18,NA,355,68,Value,1,Low,3,30,NA,66.33333333333333,NA,NA,NA
Perform,55,1.681,NA,355,142,Value,2,Medium,3,100,NA,66.33333333333333,NA,NA,NA
Perform,55,2.038,NA,355,281,Value,3,High,5,270,NA,66.33333333333333,NA,NA,NA
Perform,55,2.777,NA,355,38,Value,4,Low,2,30,NA,66.33333333333333,NA,NA,NA
Perform,55,1.489,NA,355,272,Value,5,High,4,270,NA,66.33333333333333,NA,NA,NA
Perform,55,1.223,NA,355,109,Value,6,Medium,3,100,NA,66.33333333333333,NA,NA,NA
Perform,55,1.406,NA,355,273,Value,7,High,4,270,NA,66.33333333333333,NA,NA,NA
Perform,55,2.379,NA,355,103,Value,8,Medium,1,100,NA,66.33333333333333,NA,NA,NA
Perform,55,1.032,NA,355,33,Value,9,Low,1,30,NA,66.33333333333333,NA,NA,NA
Perform,55,1.21,NA,355,103,Value,10,Medium,2,100,NA,66.33333333333333,NA,NA,NA
Perform,55,0.747,NA,355,53,Value,11,Low,1,30,NA,66.33333333333333,NA,NA,NA
Perform,55,1.412,NA,355,295,Value,12,High,5,270,NA,66.33333333333333,NA,NA,NA
Perform,55,2.096,NA,355,168,Value,13,Medium,4,100,NA,66.33333333333333,NA,NA,NA
Perform,55,0.757,NA,355,273,Value,14,High,5,270,NA,66.33333333333333,NA,NA,NA
Perform,55,1.028,NA,355,42,Value,15,Low,1,30,NA,66.33333333333333,NA,NA,NA
Perform,55,1.127,NA,355,295,Value,16,High,5,270,NA,66.33333333333333,NA,NA,NA
Perform,55,0.81,NA,355,43,Value,17,Low,1,30,NA,66.33333333333333,NA,NA,NA
Perform,55,1.099,NA,355,109,Value,18,Medium,2,100,NA,66.33333333333333,NA,NA,NA
Perform,56,8.944,NA,295,32,Liking,1,Low,4,30,NA,61,NA,NA,NA
Perform,56,12.503,NA,295,104,Liking,2,Medium,3,100,NA,61,NA,NA,NA
Perform,56,5.204,NA,295,276,Liking,3,High,4,270,NA,61,NA,NA,NA
Perform,56,3.416,NA,295,35,Liking,4,Low,2,30,NA,61,NA,NA,NA
Perform,56,12.907,NA,295,275,Liking,5,High,2,270,NA,61,NA,NA,NA
Perform,56,4.675,NA,295,102,Liking,6,Medium,2,100,NA,61,NA,NA,NA
Perform,56,4.433,NA,295,275,Liking,7,High,1,270,NA,61,NA,NA,NA
Perform,56,2.814,NA,295,103,Liking,8,Medium,1,100,NA,61,NA,NA,NA
Perform,56,4.544,NA,295,35,Liking,9,Low,5,30,NA,61,NA,NA,NA
Perform,56,7.026,NA,295,103,Liking,10,Medium,4,100,NA,61,NA,NA,NA
Perform,56,6.679,NA,295,38,Liking,11,Low,2,30,NA,61,NA,NA,NA
Perform,56,2.983,NA,295,274,Liking,12,High,1,270,NA,61,NA,NA,NA
Perform,56,2.412,NA,295,103,Liking,13,Medium,1,100,NA,61,NA,NA,NA
Perform,56,4.892,NA,295,276,Liking,14,High,3,270,NA,61,NA,NA,NA
Perform,56,1.841,NA,295,32,Liking,15,Low,3,30,NA,61,NA,NA,NA
Perform,56,5.331,NA,295,272,Liking,16,High,5,270,NA,61,NA,NA,NA
Perform,56,1.352,NA,295,31,Liking,17,Low,4,30,NA,61,NA,NA,NA
Perform,56,3.451,NA,295,101,Liking,18,Medium,3,100,NA,61,NA,NA,NA
Perform,57,2.983,Male,375,38,Wanting,1,Low,4,30,20,79,NA,NA,NA
Perform,57,1.912,Male,375,106,Wanting,2,Medium,3,100,20,79,NA,NA,NA
Perform,57,4.395,Male,375,280,Wanting,3,High,4,270,20,79,NA,NA,NA
Perform,57,2.842,Male,375,32,Wanting,4,Low,2,30,20,79,NA,NA,NA
Perform,57,1.759,Male,375,273,Wanting,5,High,5,270,20,79,NA,NA,NA
Perform,57,3.99,Male,375,108,Wanting,6,Medium,4,100,20,79,NA,NA,NA
Perform,57,1.921,Male,375,278,Wanting,7,High,2,270,20,79,NA,NA,NA
Perform,57,2.06,Male,375,109,Wanting,8,Medium,3,100,20,79,NA,NA,NA
Perform,57,1.968,Male,375,53,Wanting,9,Low,4,30,20,79,NA,NA,NA
Perform,57,3.245,Male,375,101,Wanting,10,Medium,4,100,20,79,NA,NA,NA
Perform,57,2.138,Male,375,47,Wanting,11,Low,3,30,20,79,NA,NA,NA
Perform,57,2.35,Male,375,305,Wanting,12,High,5,270,20,79,NA,NA,NA
Perform,57,1.383,Male,375,116,Wanting,13,Medium,1,100,20,79,NA,NA,NA
Perform,57,1.904,Male,375,280,Wanting,14,High,2,270,20,79,NA,NA,NA
Perform,57,1.602,Male,375,42,Wanting,15,Low,5,30,20,79,NA,NA,NA
Perform,57,3.254,Male,375,271,Wanting,16,High,4,270,20,79,NA,NA,NA
Perform,57,1.658,Male,375,49,Wanting,17,Low,4,30,20,79,NA,NA,NA
Perform,57,2.547,Male,375,108,Wanting,18,Medium,2,100,20,79,NA,NA,NA
Perform,58,2.876,Female,360,33,Wanting,1,Low,5,30,20,72.66666666666667,NA,NA,NA
Perform,58,3.052,Female,360,122,Wanting,2,Medium,5,100,20,72.66666666666667,NA,NA,NA
Perform,58,2.781,Female,360,278,Wanting,3,High,5,270,20,72.66666666666667,NA,NA,NA
Perform,58,3.535,Female,360,32,Wanting,4,Low,4,30,20,72.66666666666667,NA,NA,NA
Perform,58,8.156,Female,360,282,Wanting,5,High,3,270,20,72.66666666666667,NA,NA,NA
Perform,58,1.996,Female,360,99,Wanting,6,Medium,5,100,20,72.66666666666667,NA,NA,NA
Perform,58,1.033,Female,360,292,Wanting,7,High,2,270,20,72.66666666666667,NA,NA,NA
Perform,58,1.746,Female,360,101,Wanting,8,Medium,5,100,20,72.66666666666667,NA,NA,NA
Perform,58,1.478,Female,360,59,Wanting,9,Low,5,30,20,72.66666666666667,NA,NA,NA
Perform,58,2.755,Female,360,102,Wanting,10,Medium,3,100,20,72.66666666666667,NA,NA,NA
Perform,58,1.979,Female,360,29,Wanting,11,Low,5,30,20,72.66666666666667,NA,NA,NA
Perform,58,1.08,Female,360,274,Wanting,12,High,4,270,20,72.66666666666667,NA,NA,NA
Perform,58,3.844,Female,360,107,Wanting,13,Medium,5,100,20,72.66666666666667,NA,NA,NA
Perform,58,2.376,Female,360,316,Wanting,14,High,5,270,20,72.66666666666667,NA,NA,NA
Perform,58,1.717,Female,360,34,Wanting,15,Low,5,30,20,72.66666666666667,NA,NA,NA
Perform,58,1.429,Female,360,271,Wanting,16,High,3,270,20,72.66666666666667,NA,NA,NA
Perform,58,0.855,Female,360,38,Wanting,17,Low,5,30,20,72.66666666666667,NA,NA,NA
Perform,58,0.941,Female,360,100,Wanting,18,Medium,5,100,20,72.66666666666667,NA,NA,NA
Perform,59,3.113,NA,225,32,Value,1,Low,1,30,NA,50.666666666666664,NA,NA,NA
Perform,59,7.596,NA,225,103,Value,2,Medium,3,100,NA,50.666666666666664,NA,NA,NA
Perform,59,3.032,NA,225,277,Value,3,High,5,270,NA,50.666666666666664,NA,NA,NA
Perform,59,17.161,NA,225,39,Value,4,Low,2,30,NA,50.666666666666664,NA,NA,NA
Perform,59,2.775,NA,225,274,Value,5,High,5,270,NA,50.666666666666664,NA,NA,NA
Perform,59,3.765,NA,225,104,Value,6,Medium,3,100,NA,50.666666666666664,NA,NA,NA
Perform,59,4.966,NA,225,274,Value,7,High,5,270,NA,50.666666666666664,NA,NA,NA
Perform,59,2.654,NA,225,107,Value,8,Medium,3,100,NA,50.666666666666664,NA,NA,NA
Perform,59,2.535,NA,225,34,Value,9,Low,1,30,NA,50.666666666666664,NA,NA,NA
Perform,59,1.585,NA,225,105,Value,10,Medium,3,100,NA,50.666666666666664,NA,NA,NA
Perform,59,2.181,NA,225,34,Value,11,Low,1,30,NA,50.666666666666664,NA,NA,NA
Perform,59,2.383,NA,225,275,Value,12,High,5,270,NA,50.666666666666664,NA,NA,NA
Perform,59,2.933,NA,225,104,Value,13,Medium,3,100,NA,50.666666666666664,NA,NA,NA
Perform,59,1.631,NA,225,283,Value,14,High,5,270,NA,50.666666666666664,NA,NA,NA
Perform,59,2.601,NA,225,35,Value,15,Low,1,30,NA,50.666666666666664,NA,NA,NA
Perform,59,4.524,NA,225,276,Value,16,High,5,270,NA,50.666666666666664,NA,NA,NA
Perform,59,2.085,NA,225,35,Value,17,Low,1,30,NA,50.666666666666664,NA,NA,NA
Perform,59,0.672,NA,225,106,Value,18,Medium,3,100,NA,50.666666666666664,NA,NA,NA
Perform,60,3.782,Male,300,35,Wanting,1,Low,3,30,19,64.66666666666667,NA,NA,NA
Perform,60,2.704,Male,300,104,Wanting,2,Medium,4,100,19,64.66666666666667,NA,NA,NA
Perform,60,4.94,Male,300,271,Wanting,3,High,2,270,19,64.66666666666667,NA,NA,NA
Perform,60,3.586,Male,300,30,Wanting,4,Low,2,30,19,64.66666666666667,NA,NA,NA
Perform,60,4.769,Male,300,269,Wanting,5,High,2,270,19,64.66666666666667,NA,NA,NA
Perform,60,4.604,Male,300,104,Wanting,6,Medium,2,100,19,64.66666666666667,NA,NA,NA
Perform,60,4.635,Male,300,223,Wanting,7,High,4,270,19,64.66666666666667,NA,NA,NA
Perform,60,12.432,Male,300,102,Wanting,8,Medium,2,100,19,64.66666666666667,NA,NA,NA
Perform,60,6.094,Male,300,35,Wanting,9,Low,2,30,19,64.66666666666667,NA,NA,NA
Perform,60,4.413,Male,300,103,Wanting,10,Medium,2,100,19,64.66666666666667,NA,NA,NA
Perform,60,5.486,Male,300,33,Wanting,11,Low,4,30,19,64.66666666666667,NA,NA,NA
Perform,60,2.858,Male,300,272,Wanting,12,High,1,270,19,64.66666666666667,NA,NA,NA
Perform,60,1.859,Male,300,103,Wanting,13,Medium,4,100,19,64.66666666666667,NA,NA,NA
Perform,60,2.748,Male,300,273,Wanting,14,High,1,270,19,64.66666666666667,NA,NA,NA
Perform,60,2.705,Male,300,36,Wanting,15,Low,2,30,19,64.66666666666667,NA,NA,NA
Perform,60,11.061,Male,300,273,Wanting,16,High,2,270,19,64.66666666666667,NA,NA,NA
Perform,60,6.025,Male,300,41,Wanting,17,Low,2,30,19,64.66666666666667,NA,NA,NA
Perform,60,3.286,Male,300,105,Wanting,18,Medium,2,100,19,64.66666666666667,NA,NA,NA
Perform,61,6.597,NA,340,31,Liking,1,Low,3,30,NA,72,NA,NA,NA
Perform,61,3.499,NA,340,101,Liking,2,Medium,3,100,NA,72,NA,NA,NA
Perform,61,4.422,NA,340,272,Liking,3,High,4,270,NA,72,NA,NA,NA
Perform,61,4.198,NA,340,31,Liking,4,Low,2,30,NA,72,NA,NA,NA
Perform,61,2.444,NA,340,271,Liking,5,High,3,270,NA,72,NA,NA,NA
Perform,61,4.964,NA,340,102,Liking,6,Medium,2,100,NA,72,NA,NA,NA
Perform,61,3.747,NA,340,272,Liking,7,High,3,270,NA,72,NA,NA,NA
Perform,61,5.481,NA,340,101,Liking,8,Medium,2,100,NA,72,NA,NA,NA
Perform,61,7.321,NA,340,39,Liking,9,Low,3,30,NA,72,NA,NA,NA
Perform,61,3.35,NA,340,102,Liking,10,Medium,4,100,NA,72,NA,NA,NA
Perform,61,2.083,NA,340,31,Liking,11,Low,2,30,NA,72,NA,NA,NA
Perform,61,4.296,NA,340,271,Liking,12,High,3,270,NA,72,NA,NA,NA
Perform,61,2.05,NA,340,102,Liking,13,Medium,2,100,NA,72,NA,NA,NA
Perform,61,3.665,NA,340,271,Liking,14,High,3,270,NA,72,NA,NA,NA
Perform,61,7.279,NA,340,33,Liking,15,Low,2,30,NA,72,NA,NA,NA
Perform,61,2.095,NA,340,272,Liking,16,High,2,270,NA,72,NA,NA,NA
Perform,61,1.598,NA,340,30,Liking,17,Low,2,30,NA,72,NA,NA,NA
Perform,61,1.527,NA,340,100,Liking,18,Medium,2,100,NA,72,NA,NA,NA
Perform,62,3.983,NA,405,40,Value,1,Low,1,30,NA,70.33333333333333,NA,NA,NA
Perform,62,3.837,NA,405,105,Value,2,Medium,2,100,NA,70.33333333333333,NA,NA,NA
Perform,62,2.831,NA,405,274,Value,3,High,4,270,NA,70.33333333333333,NA,NA,NA
Perform,62,1.317,NA,405,40,Value,4,Low,1,30,NA,70.33333333333333,NA,NA,NA
Perform,62,2.266,NA,405,273,Value,5,High,4,270,NA,70.33333333333333,NA,NA,NA
Perform,62,1.603,NA,405,112,Value,6,Medium,2,100,NA,70.33333333333333,NA,NA,NA
Perform,62,4.046,NA,405,283,Value,7,High,5,270,NA,70.33333333333333,NA,NA,NA
Perform,62,1.873,NA,405,104,Value,8,Medium,3,100,NA,70.33333333333333,NA,NA,NA
Perform,62,0.899,NA,405,51,Value,9,Low,2,30,NA,70.33333333333333,NA,NA,NA
Perform,62,1.306,NA,405,103,Value,10,Medium,2,100,NA,70.33333333333333,NA,NA,NA
Perform,62,0.949,NA,405,45,Value,11,Low,1,30,NA,70.33333333333333,NA,NA,NA
Perform,62,2.405,NA,405,289,Value,12,High,4,270,NA,70.33333333333333,NA,NA,NA
Perform,62,2.808,NA,405,103,Value,13,Medium,3,100,NA,70.33333333333333,NA,NA,NA
Perform,62,2.066,NA,405,274,Value,14,High,4,270,NA,70.33333333333333,NA,NA,NA
Perform,62,3.48,NA,405,61,Value,15,Low,2,30,NA,70.33333333333333,NA,NA,NA
Perform,62,1.5,NA,405,272,Value,16,High,4,270,NA,70.33333333333333,NA,NA,NA
Perform,62,3.942,NA,405,42,Value,17,Low,2,30,NA,70.33333333333333,NA,NA,NA
Perform,62,2.11,NA,405,112,Value,18,Medium,3,100,NA,70.33333333333333,NA,NA,NA
Perform,63,8.793,NA,495,31,Liking,1,Low,5,30,NA,84,NA,NA,NA
Perform,63,4.06,NA,495,100,Liking,2,Medium,4,100,NA,84,NA,NA,NA
Perform,63,4.401,NA,495,271,Liking,3,High,4,270,NA,84,NA,NA,NA
Perform,63,3.36,NA,495,33,Liking,4,Low,2,30,NA,84,NA,NA,NA
Perform,63,2.602,NA,495,270,Liking,5,High,3,270,NA,84,NA,NA,NA
Perform,63,2.633,NA,495,99,Liking,6,Medium,4,100,NA,84,NA,NA,NA
Perform,63,3.291,NA,495,269,Liking,7,High,4,270,NA,84,NA,NA,NA
Perform,63,2.098,NA,495,102,Liking,8,Medium,3,100,NA,84,NA,NA,NA
Perform,63,3.095,NA,495,30,Liking,9,Low,2,30,NA,84,NA,NA,NA
Perform,63,2.823,NA,495,100,Liking,10,Medium,4,100,NA,84,NA,NA,NA
Perform,63,3.134,NA,495,31,Liking,11,Low,2,30,NA,84,NA,NA,NA
Perform,63,5.161,NA,495,275,Liking,12,High,4,270,NA,84,NA,NA,NA
Perform,63,2.519,NA,495,101,Liking,13,Medium,2,100,NA,84,NA,NA,NA
Perform,63,3.652,NA,495,272,Liking,14,High,4,270,NA,84,NA,NA,NA
Perform,63,3.478,NA,495,29,Liking,15,Low,2,30,NA,84,NA,NA,NA
Perform,63,3.214,NA,495,271,Liking,16,High,2,270,NA,84,NA,NA,NA
Perform,63,2.617,NA,495,32,Liking,17,Low,4,30,NA,84,NA,NA,NA
Perform,63,2.429,NA,495,99,Liking,18,Medium,1,100,NA,84,NA,NA,NA
Perform,64,7.031,Male,215,33,Wanting,1,Low,2,30,19,44.333333333333336,NA,NA,NA
Perform,64,6.606,Male,215,102,Wanting,2,Medium,4,100,19,44.333333333333336,NA,NA,NA
Perform,64,3.16,Male,215,272,Wanting,3,High,2,270,19,44.333333333333336,NA,NA,NA
Perform,64,3.516,Male,215,34,Wanting,4,Low,4,30,19,44.333333333333336,NA,NA,NA
Perform,64,2.942,Male,215,270,Wanting,5,High,2,270,19,44.333333333333336,NA,NA,NA
Perform,64,4.315,Male,215,104,Wanting,6,Medium,4,100,19,44.333333333333336,NA,NA,NA
Perform,64,5.748,Male,215,278,Wanting,7,High,4,270,19,44.333333333333336,NA,NA,NA
Perform,64,5.277,Male,215,110,Wanting,8,Medium,5,100,19,44.333333333333336,NA,NA,NA
Perform,64,1.917,Male,215,33,Wanting,9,Low,4,30,19,44.333333333333336,NA,NA,NA
Perform,64,1.982,Male,215,101,Wanting,10,Medium,2,100,19,44.333333333333336,NA,NA,NA
Perform,64,1.148,Male,215,32,Wanting,11,Low,2,30,19,44.333333333333336,NA,NA,NA
Perform,64,1.75,Male,215,269,Wanting,12,High,2,270,19,44.333333333333336,NA,NA,NA
Perform,64,2.716,Male,215,104,Wanting,13,Medium,2,100,19,44.333333333333336,NA,NA,NA
Perform,64,3.982,Male,215,276,Wanting,14,High,2,270,19,44.333333333333336,NA,NA,NA
Perform,64,1.575,Male,215,33,Wanting,15,Low,2,30,19,44.333333333333336,NA,NA,NA
Perform,64,2.247,Male,215,271,Wanting,16,High,2,270,19,44.333333333333336,NA,NA,NA
Perform,64,0.849,Male,215,33,Wanting,17,Low,4,30,19,44.333333333333336,NA,NA,NA
Perform,64,1.533,Male,215,103,Wanting,18,Medium,2,100,19,44.333333333333336,NA,NA,NA
Perform,66,3.861,Male,315,59,Wanting,1,Low,4,30,22,75,NA,NA,NA
Perform,66,1.105,Male,315,102,Wanting,2,Medium,5,100,22,75,NA,NA,NA
Perform,66,1.338,Male,315,271,Wanting,3,High,5,270,22,75,NA,NA,NA
Perform,66,2.511,Male,315,31,Wanting,4,Low,2,30,22,75,NA,NA,NA
Perform,66,3.514,Male,315,277,Wanting,5,High,5,270,22,75,NA,NA,NA
Perform,66,2.755,Male,315,102,Wanting,6,Medium,2,100,22,75,NA,NA,NA
Perform,66,5.502,Male,315,287,Wanting,7,High,5,270,22,75,NA,NA,NA
Perform,66,1.856,Male,315,103,Wanting,8,Medium,5,100,22,75,NA,NA,NA
Perform,66,1.579,Male,315,32,Wanting,9,Low,1,30,22,75,NA,NA,NA
Perform,66,5.104,Male,315,101,Wanting,10,Medium,2,100,22,75,NA,NA,NA
Perform,66,1.308,Male,315,32,Wanting,11,Low,1,30,22,75,NA,NA,NA
Perform,66,1.403,Male,315,273,Wanting,12,High,5,270,22,75,NA,NA,NA
Perform,66,4.961,Male,315,107,Wanting,13,Medium,5,100,22,75,NA,NA,NA
Perform,66,1.876,Male,315,272,Wanting,14,High,5,270,22,75,NA,NA,NA
Perform,66,6.253,Male,315,44,Wanting,15,Low,2,30,22,75,NA,NA,NA
Perform,66,2.767,Male,315,275,Wanting,16,High,5,270,22,75,NA,NA,NA
Perform,66,0.968,Male,315,32,Wanting,17,Low,1,30,22,75,NA,NA,NA
Perform,66,1.895,Male,315,103,Wanting,18,Medium,4,100,22,75,NA,NA,NA
Perform,67,2.961,Female,220,34,Wanting,1,Low,2,30,21,32.666666666666664,NA,NA,NA
Perform,67,2.395,Female,220,100,Wanting,2,Medium,1,100,21,32.666666666666664,NA,NA,NA
Perform,67,2.439,Female,220,275,Wanting,3,High,1,270,21,32.666666666666664,NA,NA,NA
Perform,67,2.431,Female,220,35,Wanting,4,Low,2,30,21,32.666666666666664,NA,NA,NA
Perform,67,2.77,Female,220,270,Wanting,5,High,2,270,21,32.666666666666664,NA,NA,NA
Perform,67,3.94,Female,220,112,Wanting,6,Medium,1,100,21,32.666666666666664,NA,NA,NA
Perform,67,2.929,Female,220,271,Wanting,7,High,2,270,21,32.666666666666664,NA,NA,NA
Perform,67,2.829,Female,220,137,Wanting,8,Medium,2,100,21,32.666666666666664,NA,NA,NA
Perform,67,1.49,Female,220,36,Wanting,9,Low,4,30,21,32.666666666666664,NA,NA,NA
Perform,67,2.445,Female,220,111,Wanting,10,Medium,1,100,21,32.666666666666664,NA,NA,NA
Perform,67,3.118,Female,220,33,Wanting,11,Low,3,30,21,32.666666666666664,NA,NA,NA
Perform,67,3.182,Female,220,282,Wanting,12,High,3,270,21,32.666666666666664,NA,NA,NA
Perform,67,1.318,Female,220,122,Wanting,13,Medium,1,100,21,32.666666666666664,NA,NA,NA
Perform,67,1.275,Female,220,299,Wanting,14,High,2,270,21,32.666666666666664,NA,NA,NA
Perform,67,4.625,Female,220,36,Wanting,15,Low,4,30,21,32.666666666666664,NA,NA,NA
Perform,67,2.085,Female,220,292,Wanting,16,High,1,270,21,32.666666666666664,NA,NA,NA
Perform,67,2.853,Female,220,54,Wanting,17,Low,1,30,21,32.666666666666664,NA,NA,NA
Perform,67,1.035,Female,220,105,Wanting,18,Medium,2,100,21,32.666666666666664,NA,NA,NA
Perform,68,14.208,NA,200,62,Liking,1,Low,3,30,NA,52,NA,NA,NA
Perform,68,3.164,NA,200,103,Liking,2,Medium,3,100,NA,52,NA,NA,NA
Perform,68,8.213,NA,200,275,Liking,3,High,3,270,NA,52,NA,NA,NA
Perform,68,8.178,NA,200,39,Liking,4,Low,3,30,NA,52,NA,NA,NA
Perform,68,2.131,NA,200,280,Liking,5,High,3,270,NA,52,NA,NA,NA
Perform,68,4.879,NA,200,117,Liking,6,Medium,3,100,NA,52,NA,NA,NA
Perform,68,0.915,NA,200,278,Liking,7,High,3,270,NA,52,NA,NA,NA
Perform,68,4.43,NA,200,104,Liking,8,Medium,3,100,NA,52,NA,NA,NA
Perform,68,3.705,NA,200,39,Liking,9,Low,3,30,NA,52,NA,NA,NA
Perform,68,5.038,NA,200,104,Liking,10,Medium,3,100,NA,52,NA,NA,NA
Perform,68,11.491,NA,200,49,Liking,11,Low,3,30,NA,52,NA,NA,NA
Perform,68,3.247,NA,200,279,Liking,12,High,3,270,NA,52,NA,NA,NA
Perform,68,11.745,NA,200,127,Liking,13,Medium,3,100,NA,52,NA,NA,NA
Perform,68,6.78,NA,200,286,Liking,14,High,3,270,NA,52,NA,NA,NA
Perform,68,4.789,NA,200,49,Liking,15,Low,3,30,NA,52,NA,NA,NA
Perform,68,2.215,NA,200,281,Liking,16,High,3,270,NA,52,NA,NA,NA
Perform,68,2.49,NA,200,47,Liking,17,Low,3,30,NA,52,NA,NA,NA
Perform,68,2.534,NA,200,103,Liking,18,Medium,3,100,NA,52,NA,NA,NA
Perform,69,5.132,NA,310,32,Value,1,Low,1,30,NA,51.333333333333336,NA,NA,NA
Perform,69,2.437,NA,310,115,Value,2,Medium,2,100,NA,51.333333333333336,NA,NA,NA
Perform,69,1.515,NA,310,271,Value,3,High,3,270,NA,51.333333333333336,NA,NA,NA
Perform,69,2.752,NA,310,44,Value,4,Low,1,30,NA,51.333333333333336,NA,NA,NA
Perform,69,2.435,NA,310,273,Value,5,High,3,270,NA,51.333333333333336,NA,NA,NA
Perform,69,4.485,NA,310,100,Value,6,Medium,2,100,NA,51.333333333333336,NA,NA,NA
Perform,69,6.872,NA,310,277,Value,7,High,4,270,NA,51.333333333333336,NA,NA,NA
Perform,69,1.821,NA,310,103,Value,8,Medium,3,100,NA,51.333333333333336,NA,NA,NA
Perform,69,1.86,NA,310,35,Value,9,Low,2,30,NA,51.333333333333336,NA,NA,NA
Perform,69,1.693,NA,310,105,Value,10,Medium,2,100,NA,51.333333333333336,NA,NA,NA
Perform,69,1.464,NA,310,50,Value,11,Low,1,30,NA,51.333333333333336,NA,NA,NA
Perform,69,2.598,NA,310,276,Value,12,High,5,270,NA,51.333333333333336,NA,NA,NA
Perform,69,4.571,NA,310,110,Value,13,Medium,2,100,NA,51.333333333333336,NA,NA,NA
Perform,69,2.231,NA,310,276,Value,14,High,3,270,NA,51.333333333333336,NA,NA,NA
Perform,69,2.817,NA,310,80,Value,15,Low,2,30,NA,51.333333333333336,NA,NA,NA
Perform,69,4.096,NA,310,276,Value,16,High,4,270,NA,51.333333333333336,NA,NA,NA
Perform,69,2.896,NA,310,31,Value,17,Low,1,30,NA,51.333333333333336,NA,NA,NA
Perform,69,1.468,NA,310,104,Value,18,Medium,2,100,NA,51.333333333333336,NA,NA,NA
Perform,70,3.638,NA,325,35,Liking,1,Low,4,30,NA,65,NA,NA,NA
Perform,70,3.496,NA,325,99,Liking,2,Medium,3,100,NA,65,NA,NA,NA
Perform,70,4.56,NA,325,273,Liking,3,High,2,270,NA,65,NA,NA,NA
Perform,70,4.599,NA,325,32,Liking,4,Low,4,30,NA,65,NA,NA,NA
Perform,70,2.766,NA,325,276,Liking,5,High,3,270,NA,65,NA,NA,NA
Perform,70,4.749,NA,325,104,Liking,6,Medium,5,100,NA,65,NA,NA,NA
Perform,70,6.947,NA,325,273,Liking,7,High,2,270,NA,65,NA,NA,NA
Perform,70,3.354,NA,325,100,Liking,8,Medium,4,100,NA,65,NA,NA,NA
Perform,70,3.184,NA,325,31,Liking,9,Low,5,30,NA,65,NA,NA,NA
Perform,70,2.56,NA,325,106,Liking,10,Medium,4,100,NA,65,NA,NA,NA
Perform,70,2.619,NA,325,33,Liking,11,Low,2,30,NA,65,NA,NA,NA
Perform,70,2.982,NA,325,256,Liking,12,High,5,270,NA,65,NA,NA,NA
Perform,70,2.597,NA,325,102,Liking,13,Medium,2,100,NA,65,NA,NA,NA
Perform,70,2.45,NA,325,273,Liking,14,High,2,270,NA,65,NA,NA,NA
Perform,70,2.517,NA,325,35,Liking,15,Low,5,30,NA,65,NA,NA,NA
Perform,70,1.844,NA,325,273,Liking,16,High,3,270,NA,65,NA,NA,NA
Perform,70,2.518,NA,325,44,Liking,17,Low,4,30,NA,65,NA,NA,NA
Perform,70,2.003,NA,325,101,Liking,18,Medium,5,100,NA,65,NA,NA,NA
Perform,71,4.065,NA,315,30,Value,1,Low,1,30,NA,65,NA,NA,NA
Perform,71,5.003,NA,315,101,Value,2,Medium,1,100,NA,65,NA,NA,NA
Perform,71,5.309,NA,315,272,Value,3,High,4,270,NA,65,NA,NA,NA
Perform,71,3.83,NA,315,31,Value,4,Low,2,30,NA,65,NA,NA,NA
Perform,71,4.546,NA,315,272,Value,5,High,5,270,NA,65,NA,NA,NA
Perform,71,5.08,NA,315,99,Value,6,Medium,2,100,NA,65,NA,NA,NA
Perform,71,2.897,NA,315,273,Value,7,High,4,270,NA,65,NA,NA,NA
Perform,71,2.551,NA,315,99,Value,8,Medium,3,100,NA,65,NA,NA,NA
Perform,71,6.907,NA,315,30,Value,9,Low,5,30,NA,65,NA,NA,NA
Perform,71,3.32,NA,315,102,Value,10,Medium,2,100,NA,65,NA,NA,NA
Perform,71,10.86,NA,315,31,Value,11,Low,2,30,NA,65,NA,NA,NA
Perform,71,4.931,NA,315,274,Value,12,High,2,270,NA,65,NA,NA,NA
Perform,71,3.465,NA,315,101,Value,13,Medium,4,100,NA,65,NA,NA,NA
Perform,71,4.625,NA,315,272,Value,14,High,5,270,NA,65,NA,NA,NA
Perform,71,1.73,NA,315,30,Value,15,Low,3,30,NA,65,NA,NA,NA
Perform,71,5.381,NA,315,274,Value,16,High,2,270,NA,65,NA,NA,NA
Perform,71,1.019,NA,315,25,Value,17,Low,5,30,NA,65,NA,NA,NA
Perform,71,0.7,NA,315,100,Value,18,Medium,3,100,NA,65,NA,NA,NA
Perform,72,4.912,NA,290,33,Value,1,Low,1,30,NA,52.333333333333336,NA,NA,NA
Perform,72,4.469,NA,290,102,Value,2,Medium,3,100,NA,52.333333333333336,NA,NA,NA
Perform,72,3.739,NA,290,272,Value,3,High,5,270,NA,52.333333333333336,NA,NA,NA
Perform,72,2.437,NA,290,32,Value,4,Low,2,30,NA,52.333333333333336,NA,NA,NA
Perform,72,9.023,NA,290,271,Value,5,High,5,270,NA,52.333333333333336,NA,NA,NA
Perform,72,4.885,NA,290,102,Value,6,Medium,3,100,NA,52.333333333333336,NA,NA,NA
Perform,72,3.899,NA,290,272,Value,7,High,5,270,NA,52.333333333333336,NA,NA,NA
Perform,72,4.869,NA,290,102,Value,8,Medium,1,100,NA,52.333333333333336,NA,NA,NA
Perform,72,3.683,NA,290,31,Value,9,Low,1,30,NA,52.333333333333336,NA,NA,NA
Perform,72,3.904,NA,290,101,Value,10,Medium,2,100,NA,52.333333333333336,NA,NA,NA
Perform,72,4.41,NA,290,32,Value,11,Low,3,30,NA,52.333333333333336,NA,NA,NA
Perform,72,3.371,NA,290,272,Value,12,High,4,270,NA,52.333333333333336,NA,NA,NA
Perform,72,2.329,NA,290,102,Value,13,Medium,3,100,NA,52.333333333333336,NA,NA,NA
Perform,72,5.396,NA,290,276,Value,14,High,4,270,NA,52.333333333333336,NA,NA,NA
Perform,72,4.62,NA,290,31,Value,15,Low,1,30,NA,52.333333333333336,NA,NA,NA
Perform,72,2.182,NA,290,271,Value,16,High,4,270,NA,52.333333333333336,NA,NA,NA
Perform,72,2.895,NA,290,32,Value,17,Low,1,30,NA,52.333333333333336,NA,NA,NA
Perform,72,1.438,NA,290,102,Value,18,Medium,2,100,NA,52.333333333333336,NA,NA,NA
Perform,73,2.299,NA,215,33,Liking,1,Low,4,30,NA,32.666666666666664,NA,NA,NA
Perform,73,4.564,NA,215,105,Liking,2,Medium,3,100,NA,32.666666666666664,NA,NA,NA
Perform,73,2.366,NA,215,272,Liking,3,High,4,270,NA,32.666666666666664,NA,NA,NA
Perform,73,2.449,NA,215,35,Liking,4,Low,2,30,NA,32.666666666666664,NA,NA,NA
Perform,73,2.306,NA,215,272,Liking,5,High,4,270,NA,32.666666666666664,NA,NA,NA
Perform,73,1.852,NA,215,104,Liking,6,Medium,4,100,NA,32.666666666666664,NA,NA,NA
Perform,73,3.808,NA,215,275,Liking,7,High,4,270,NA,32.666666666666664,NA,NA,NA
Perform,73,0.915,NA,215,106,Liking,8,Medium,2,100,NA,32.666666666666664,NA,NA,NA
Perform,73,2.781,NA,215,32,Liking,9,Low,3,30,NA,32.666666666666664,NA,NA,NA
Perform,73,2.284,NA,215,103,Liking,10,Medium,4,100,NA,32.666666666666664,NA,NA,NA
Perform,73,2.493,NA,215,32,Liking,11,Low,2,30,NA,32.666666666666664,NA,NA,NA
Perform,73,4.493,NA,215,272,Liking,12,High,2,270,NA,32.666666666666664,NA,NA,NA
Perform,73,3.319,NA,215,106,Liking,13,Medium,1,100,NA,32.666666666666664,NA,NA,NA
Perform,73,2.493,NA,215,274,Liking,14,High,4,270,NA,32.666666666666664,NA,NA,NA
Perform,73,1.318,NA,215,35,Liking,15,Low,5,30,NA,32.666666666666664,NA,NA,NA
Perform,73,1.316,NA,215,271,Liking,16,High,4,270,NA,32.666666666666664,NA,NA,NA
Perform,73,5.049,NA,215,33,Liking,17,Low,2,30,NA,32.666666666666664,NA,NA,NA
Perform,73,2.324,NA,215,103,Liking,18,Medium,4,100,NA,32.666666666666664,NA,NA,NA
Perform,74,4.388,Female,345,34,Wanting,1,Low,4,30,19,74.66666666666667,NA,NA,NA
Perform,74,4.461,Female,345,102,Wanting,2,Medium,4,100,19,74.66666666666667,NA,NA,NA
Perform,74,2.149,Female,345,277,Wanting,3,High,3,270,19,74.66666666666667,NA,NA,NA
Perform,74,4.314,Female,345,36,Wanting,4,Low,3,30,19,74.66666666666667,NA,NA,NA
Perform,74,4.193,Female,345,275,Wanting,5,High,5,270,19,74.66666666666667,NA,NA,NA
Perform,74,5.54,Female,345,105,Wanting,6,Medium,2,100,19,74.66666666666667,NA,NA,NA
Perform,74,4.764,Female,345,276,Wanting,7,High,4,270,19,74.66666666666667,NA,NA,NA
Perform,74,4.208,Female,345,103,Wanting,8,Medium,2,100,19,74.66666666666667,NA,NA,NA
Perform,74,5.913,Female,345,34,Wanting,9,Low,3,30,19,74.66666666666667,NA,NA,NA
Perform,74,3.728,Female,345,105,Wanting,10,Medium,4,100,19,74.66666666666667,NA,NA,NA
Perform,74,2.313,Female,345,34,Wanting,11,Low,3,30,19,74.66666666666667,NA,NA,NA
Perform,74,5.367,Female,345,274,Wanting,12,High,5,270,19,74.66666666666667,NA,NA,NA
Perform,74,4.567,Female,345,105,Wanting,13,Medium,2,100,19,74.66666666666667,NA,NA,NA
Perform,74,3.51,Female,345,274,Wanting,14,High,4,270,19,74.66666666666667,NA,NA,NA
Perform,74,2.334,Female,345,35,Wanting,15,Low,2,30,19,74.66666666666667,NA,NA,NA
Perform,74,3.298,Female,345,275,Wanting,16,High,5,270,19,74.66666666666667,NA,NA,NA
Perform,74,2.58,Female,345,37,Wanting,17,Low,2,30,19,74.66666666666667,NA,NA,NA
Perform,74,2.792,Female,345,104,Wanting,18,Medium,2,100,19,74.66666666666667,NA,NA,NA
Perform,75,3.285,Female,410,32,Wanting,1,Low,3,30,21,86.66666666666667,NA,NA,NA
Perform,75,2.285,Female,410,103,Wanting,2,Medium,2,100,21,86.66666666666667,NA,NA,NA
Perform,75,2.298,Female,410,271,Wanting,3,High,1,270,21,86.66666666666667,NA,NA,NA
Perform,75,4.485,Female,410,32,Wanting,4,Low,3,30,21,86.66666666666667,NA,NA,NA
Perform,75,3.008,Female,410,273,Wanting,5,High,1,270,21,86.66666666666667,NA,NA,NA
Perform,75,2.292,Female,410,103,Wanting,6,Medium,3,100,21,86.66666666666667,NA,NA,NA
Perform,75,2.943,Female,410,274,Wanting,7,High,1,270,21,86.66666666666667,NA,NA,NA
Perform,75,5.165,Female,410,107,Wanting,8,Medium,2,100,21,86.66666666666667,NA,NA,NA
Perform,75,5.684,Female,410,31,Wanting,9,Low,4,30,21,86.66666666666667,NA,NA,NA
Perform,75,0.762,Female,410,102,Wanting,10,Medium,3,100,21,86.66666666666667,NA,NA,NA
Perform,75,1.166,Female,410,31,Wanting,11,Low,3,30,21,86.66666666666667,NA,NA,NA
Perform,75,2.516,Female,410,273,Wanting,12,High,2,270,21,86.66666666666667,NA,NA,NA
Perform,75,2.042,Female,410,102,Wanting,13,Medium,2,100,21,86.66666666666667,NA,NA,NA
Perform,75,1.445,Female,410,272,Wanting,14,High,1,270,21,86.66666666666667,NA,NA,NA
Perform,75,1.825,Female,410,33,Wanting,15,Low,2,30,21,86.66666666666667,NA,NA,NA
Perform,75,1.501,Female,410,272,Wanting,16,High,3,270,21,86.66666666666667,NA,NA,NA
Perform,75,3.044,Female,410,32,Wanting,17,Low,3,30,21,86.66666666666667,NA,NA,NA
Perform,75,2.228,Female,410,102,Wanting,18,Medium,2,100,21,86.66666666666667,NA,NA,NA
Perform,76,11.388,NA,410,33,Value,1,Low,3,30,NA,67.33333333333333,NA,NA,NA
Perform,76,9.13,NA,410,103,Value,2,Medium,2,100,NA,67.33333333333333,NA,NA,NA
Perform,76,27.4,NA,410,312,Value,3,High,2,270,NA,67.33333333333333,NA,NA,NA
Perform,76,4.872,NA,410,53,Value,4,Low,3,30,NA,67.33333333333333,NA,NA,NA
Perform,76,16.734,NA,410,272,Value,5,High,1,270,NA,67.33333333333333,NA,NA,NA
Perform,76,14.47,NA,410,108,Value,6,Medium,3,100,NA,67.33333333333333,NA,NA,NA
Perform,76,21.411,NA,410,272,Value,7,High,3,270,NA,67.33333333333333,NA,NA,NA
Perform,76,7.558,NA,410,110,Value,8,Medium,4,100,NA,67.33333333333333,NA,NA,NA
Perform,76,9.243,NA,410,49,Value,9,Low,3,30,NA,67.33333333333333,NA,NA,NA
Perform,76,7.045,NA,410,101,Value,10,Medium,4,100,NA,67.33333333333333,NA,NA,NA
Perform,76,6.821,NA,410,33,Value,11,Low,5,30,NA,67.33333333333333,NA,NA,NA
Perform,76,9.183,NA,410,279,Value,12,High,3,270,NA,67.33333333333333,NA,NA,NA
Perform,76,7.758,NA,410,105,Value,13,Medium,3,100,NA,67.33333333333333,NA,NA,NA
Perform,76,22.081,NA,410,293,Value,14,High,3,270,NA,67.33333333333333,NA,NA,NA
Perform,76,3.843,NA,410,36,Value,15,Low,5,30,NA,67.33333333333333,NA,NA,NA
Perform,76,2.608,NA,410,286,Value,16,High,3,270,NA,67.33333333333333,NA,NA,NA
Perform,76,5.926,NA,410,34,Value,17,Low,2,30,NA,67.33333333333333,NA,NA,NA
Perform,76,51.641,NA,410,104,Value,18,Medium,3,100,NA,67.33333333333333,NA,NA,NA
Perform,77,2.117,Male,350,29,Wanting,1,Low,2,30,19,64,NA,NA,NA
Perform,77,4.23,Male,350,100,Wanting,2,Medium,3,100,19,64,NA,NA,NA
Perform,77,7.464,Male,350,272,Wanting,3,High,4,270,19,64,NA,NA,NA
Perform,77,3.066,Male,350,32,Wanting,4,Low,3,30,19,64,NA,NA,NA
Perform,77,6.117,Male,350,272,Wanting,5,High,5,270,19,64,NA,NA,NA
Perform,77,10.869,Male,350,117,Wanting,6,Medium,2,100,19,64,NA,NA,NA
Perform,77,7.747,Male,350,264,Wanting,7,High,4,270,19,64,NA,NA,NA
Perform,77,1.934,Male,350,98,Wanting,8,Medium,3,100,19,64,NA,NA,NA
Perform,77,4.02,Male,350,28,Wanting,9,Low,3,30,19,64,NA,NA,NA
Perform,77,3.287,Male,350,98,Wanting,10,Medium,2,100,19,64,NA,NA,NA
Perform,77,2.444,Male,350,34,Wanting,11,Low,2,30,19,64,NA,NA,NA
Perform,77,1.399,Male,350,244,Wanting,12,High,3,270,19,64,NA,NA,NA
Perform,77,1.073,Male,350,104,Wanting,13,Medium,3,100,19,64,NA,NA,NA
Perform,77,4.078,Male,350,269,Wanting,14,High,4,270,19,64,NA,NA,NA
Perform,77,4.078,Male,350,29,Wanting,15,Low,4,30,19,64,NA,NA,NA
Perform,77,3.197,Male,350,270,Wanting,16,High,4,270,19,64,NA,NA,NA
Perform,77,3.742,Male,350,31,Wanting,17,Low,1,30,19,64,NA,NA,NA
Perform,77,3.698,Male,350,97,Wanting,18,Medium,2,100,19,64,NA,NA,NA
Perform,78,3.946,NA,435,32,Liking,1,Low,4,30,NA,82.33333333333333,NA,NA,NA
Perform,78,1.369,NA,435,99,Liking,2,Medium,2,100,NA,82.33333333333333,NA,NA,NA
Perform,78,1.864,NA,435,267,Liking,3,High,1,270,NA,82.33333333333333,NA,NA,NA
Perform,78,5.36,NA,435,34,Liking,4,Low,5,30,NA,82.33333333333333,NA,NA,NA
Perform,78,3.412,NA,435,265,Liking,5,High,1,270,NA,82.33333333333333,NA,NA,NA
Perform,78,3.631,NA,435,97,Liking,6,Medium,3,100,NA,82.33333333333333,NA,NA,NA
Perform,78,1.834,NA,435,264,Liking,7,High,1,270,NA,82.33333333333333,NA,NA,NA
Perform,78,3.38,NA,435,95,Liking,8,Medium,3,100,NA,82.33333333333333,NA,NA,NA
Perform,78,3.067,NA,435,26,Liking,9,Low,5,30,NA,82.33333333333333,NA,NA,NA
Perform,78,1.335,NA,435,96,Liking,10,Medium,3,100,NA,82.33333333333333,NA,NA,NA
Perform,78,2.593,NA,435,31,Liking,11,Low,5,30,NA,82.33333333333333,NA,NA,NA
Perform,78,1.024,NA,435,267,Liking,12,High,1,270,NA,82.33333333333333,NA,NA,NA
Perform,78,1.552,NA,435,98,Liking,13,Medium,3,100,NA,82.33333333333333,NA,NA,NA
Perform,78,1.242,NA,435,268,Liking,14,High,1,270,NA,82.33333333333333,NA,NA,NA
Perform,78,1.924,NA,435,31,Liking,15,Low,5,30,NA,82.33333333333333,NA,NA,NA
Perform,78,1.645,NA,435,269,Liking,16,High,1,270,NA,82.33333333333333,NA,NA,NA
Perform,78,1.62,NA,435,33,Liking,17,Low,5,30,NA,82.33333333333333,NA,NA,NA
Perform,78,0.46,NA,435,105,Liking,18,Medium,3,100,NA,82.33333333333333,NA,NA,NA
Perform,79,10.112,NA,165,32,Liking,1,Low,2,30,NA,45.666666666666664,NA,NA,NA
Perform,79,4.001,NA,165,102,Liking,2,Medium,2,100,NA,45.666666666666664,NA,NA,NA
Perform,79,8.377,NA,165,273,Liking,3,High,2,270,NA,45.666666666666664,NA,NA,NA
Perform,79,5.672,NA,165,32,Liking,4,Low,3,30,NA,45.666666666666664,NA,NA,NA
Perform,79,4.682,NA,165,271,Liking,5,High,1,270,NA,45.666666666666664,NA,NA,NA
Perform,79,2.681,NA,165,102,Liking,6,Medium,3,100,NA,45.666666666666664,NA,NA,NA
Perform,79,5.413,NA,165,273,Liking,7,High,2,270,NA,45.666666666666664,NA,NA,NA
Perform,79,4.166,NA,165,102,Liking,8,Medium,5,100,NA,45.666666666666664,NA,NA,NA
Perform,79,2.74,NA,165,33,Liking,9,Low,1,30,NA,45.666666666666664,NA,NA,NA
Perform,79,3.665,NA,165,103,Liking,10,Medium,1,100,NA,45.666666666666664,NA,NA,NA
Perform,79,7.379,NA,165,32,Liking,11,Low,3,30,NA,45.666666666666664,NA,NA,NA
Perform,79,2.831,NA,165,272,Liking,12,High,5,270,NA,45.666666666666664,NA,NA,NA
Perform,79,4.168,NA,165,102,Liking,13,Medium,4,100,NA,45.666666666666664,NA,NA,NA
Perform,79,3.409,NA,165,272,Liking,14,High,3,270,NA,45.666666666666664,NA,NA,NA
Perform,79,4.03,NA,165,35,Liking,15,Low,3,30,NA,45.666666666666664,NA,NA,NA
Perform,79,7.35,NA,165,272,Liking,16,High,2,270,NA,45.666666666666664,NA,NA,NA
Perform,79,4.285,NA,165,33,Liking,17,Low,5,30,NA,45.666666666666664,NA,NA,NA
Perform,79,2.112,NA,165,102,Liking,18,Medium,4,100,NA,45.666666666666664,NA,NA,NA
Perform,80,4.476,NA,350,36,Liking,1,Low,4,30,NA,68.33333333333333,NA,NA,NA
Perform,80,1.656,NA,350,104,Liking,2,Medium,3,100,NA,68.33333333333333,NA,NA,NA
Perform,80,3.567,NA,350,272,Liking,3,High,2,270,NA,68.33333333333333,NA,NA,NA
Perform,80,1.8,NA,350,34,Liking,4,Low,3,30,NA,68.33333333333333,NA,NA,NA
Perform,80,2.757,NA,350,279,Liking,5,High,4,270,NA,68.33333333333333,NA,NA,NA
Perform,80,1.744,NA,350,105,Liking,6,Medium,2,100,NA,68.33333333333333,NA,NA,NA
Perform,80,2.658,NA,350,273,Liking,7,High,4,270,NA,68.33333333333333,NA,NA,NA
Perform,80,1.825,NA,350,104,Liking,8,Medium,3,100,NA,68.33333333333333,NA,NA,NA
Perform,80,3.247,NA,350,37,Liking,9,Low,1,30,NA,68.33333333333333,NA,NA,NA
Perform,80,1.736,NA,350,108,Liking,10,Medium,1,100,NA,68.33333333333333,NA,NA,NA
Perform,80,1.63,NA,350,35,Liking,11,Low,2,30,NA,68.33333333333333,NA,NA,NA
Perform,80,1.714,NA,350,276,Liking,12,High,5,270,NA,68.33333333333333,NA,NA,NA
Perform,80,2.552,NA,350,109,Liking,13,Medium,5,100,NA,68.33333333333333,NA,NA,NA
Perform,80,1.799,NA,350,275,Liking,14,High,3,270,NA,68.33333333333333,NA,NA,NA
Perform,80,1.079,NA,350,30,Liking,15,Low,1,30,NA,68.33333333333333,NA,NA,NA
Perform,80,1.863,NA,350,274,Liking,16,High,1,270,NA,68.33333333333333,NA,NA,NA
Perform,80,1.974,NA,350,35,Liking,17,Low,4,30,NA,68.33333333333333,NA,NA,NA
Perform,80,1.802,NA,350,105,Liking,18,Medium,2,100,NA,68.33333333333333,NA,NA,NA
Perform,81,3.377,NA,315,32,Liking,1,Low,4,30,NA,64,NA,NA,NA
Perform,81,1.992,NA,315,100,Liking,2,Medium,3,100,NA,64,NA,NA,NA
Perform,81,2.583,NA,315,273,Liking,3,High,2,270,NA,64,NA,NA,NA
Perform,81,2.141,NA,315,31,Liking,4,Low,4,30,NA,64,NA,NA,NA
Perform,81,5.998,NA,315,300,Liking,5,High,2,270,NA,64,NA,NA,NA
Perform,81,1.626,NA,315,103,Liking,6,Medium,2,100,NA,64,NA,NA,NA
Perform,81,2.816,NA,315,274,Liking,7,High,2,270,NA,64,NA,NA,NA
Perform,81,1.431,NA,315,106,Liking,8,Medium,4,100,NA,64,NA,NA,NA
Perform,81,3.847,NA,315,34,Liking,9,Low,3,30,NA,64,NA,NA,NA
Perform,81,2.812,NA,315,100,Liking,10,Medium,4,100,NA,64,NA,NA,NA
Perform,81,2.161,NA,315,32,Liking,11,Low,4,30,NA,64,NA,NA,NA
Perform,81,3.776,NA,315,274,Liking,12,High,2,270,NA,64,NA,NA,NA
Perform,81,1.612,NA,315,104,Liking,13,Medium,2,100,NA,64,NA,NA,NA
Perform,81,2.1,NA,315,269,Liking,14,High,4,270,NA,64,NA,NA,NA
Perform,81,1.399,NA,315,42,Liking,15,Low,5,30,NA,64,NA,NA,NA
Perform,81,2.037,NA,315,275,Liking,16,High,4,270,NA,64,NA,NA,NA
Perform,81,1.301,NA,315,32,Liking,17,Low,4,30,NA,64,NA,NA,NA
Perform,81,1.528,NA,315,102,Liking,18,Medium,4,100,NA,64,NA,NA,NA
Perform,82,4.83,NA,215,44,Value,1,Low,2,30,NA,43.333333333333336,NA,NA,NA
Perform,82,5.104,NA,215,100,Value,2,Medium,3,100,NA,43.333333333333336,NA,NA,NA
Perform,82,3.762,NA,215,281,Value,3,High,5,270,NA,43.333333333333336,NA,NA,NA
Perform,82,1.413,NA,215,51,Value,4,Low,3,30,NA,43.333333333333336,NA,NA,NA
Perform,82,5.685,NA,215,291,Value,5,High,5,270,NA,43.333333333333336,NA,NA,NA
Perform,82,11.459,NA,215,108,Value,6,Medium,2,100,NA,43.333333333333336,NA,NA,NA
Perform,82,4.504,NA,215,287,Value,7,High,4,270,NA,43.333333333333336,NA,NA,NA
Perform,82,9.415,NA,215,103,Value,8,Medium,2,100,NA,43.333333333333336,NA,NA,NA
Perform,82,4.544,NA,215,40,Value,9,Low,1,30,NA,43.333333333333336,NA,NA,NA
Perform,82,3.493,NA,215,100,Value,10,Medium,2,100,NA,43.333333333333336,NA,NA,NA
Perform,82,8.934,NA,215,56,Value,11,Low,2,30,NA,43.333333333333336,NA,NA,NA
Perform,82,3.195,NA,215,296,Value,12,High,5,270,NA,43.333333333333336,NA,NA,NA
Perform,82,1.63,NA,215,108,Value,13,Medium,3,100,NA,43.333333333333336,NA,NA,NA
Perform,82,7.976,NA,215,273,Value,14,High,4,270,NA,43.333333333333336,NA,NA,NA
Perform,82,1.331,NA,215,34,Value,15,Low,1,30,NA,43.333333333333336,NA,NA,NA
Perform,82,5.711,NA,215,293,Value,16,High,5,270,NA,43.333333333333336,NA,NA,NA
Perform,82,4.09,NA,215,49,Value,17,Low,1,30,NA,43.333333333333336,NA,NA,NA
Perform,82,14.592,NA,215,109,Value,18,Medium,2,100,NA,43.333333333333336,NA,NA,NA
Perform,83,1.686,Female,280,36,Wanting,1,Low,5,30,22,50,NA,NA,NA
Perform,83,1.683,Female,280,105,Wanting,2,Medium,3,100,22,50,NA,NA,NA
Perform,83,2.136,Female,280,273,Wanting,3,High,2,270,22,50,NA,NA,NA
Perform,83,1.879,Female,280,43,Wanting,4,Low,4,30,22,50,NA,NA,NA
Perform,83,3.217,Female,280,273,Wanting,5,High,4,270,22,50,NA,NA,NA
Perform,83,2.103,Female,280,103,Wanting,6,Medium,5,100,22,50,NA,NA,NA
Perform,83,2.838,Female,280,276,Wanting,7,High,1,270,22,50,NA,NA,NA
Perform,83,1.016,Female,280,103,Wanting,8,Medium,4,100,22,50,NA,NA,NA
Perform,83,2.001,Female,280,33,Wanting,9,Low,5,30,22,50,NA,NA,NA
Perform,83,3.403,Female,280,106,Wanting,10,Medium,5,100,22,50,NA,NA,NA
Perform,83,3.56,Female,280,35,Wanting,11,Low,1,30,22,50,NA,NA,NA
Perform,83,2.649,Female,280,274,Wanting,12,High,5,270,22,50,NA,NA,NA
Perform,83,0.997,Female,280,102,Wanting,13,Medium,2,100,22,50,NA,NA,NA
Perform,83,2.365,Female,280,271,Wanting,14,High,5,270,22,50,NA,NA,NA
Perform,83,0.778,Female,280,36,Wanting,15,Low,3,30,22,50,NA,NA,NA
Perform,83,1.816,Female,280,275,Wanting,16,High,2,270,22,50,NA,NA,NA
Perform,83,1.321,Female,280,76,Wanting,17,Low,4,30,22,50,NA,NA,NA
Perform,83,1.764,Female,280,105,Wanting,18,Medium,1,100,22,50,NA,NA,NA
Perform,84,8.25,NA,140,33,Liking,1,Low,2,30,NA,24,NA,NA,NA
Perform,84,4.412,NA,140,115,Liking,2,Medium,1,100,NA,24,NA,NA,NA
Perform,84,7.132,NA,140,279,Liking,3,High,3,270,NA,24,NA,NA,NA
Perform,84,4.017,NA,140,58,Liking,4,Low,4,30,NA,24,NA,NA,NA
Perform,84,3.645,NA,140,275,Liking,5,High,5,270,NA,24,NA,NA,NA
Perform,84,3.453,NA,140,105,Liking,6,Medium,4,100,NA,24,NA,NA,NA
Perform,84,13.143,NA,140,356,Liking,7,High,4,270,NA,24,NA,NA,NA
Perform,84,4.409,NA,140,111,Liking,8,Medium,2,100,NA,24,NA,NA,NA
Perform,84,6.799,NA,140,50,Liking,9,Low,3,30,NA,24,NA,NA,NA
Perform,84,4.686,NA,140,127,Liking,10,Medium,1,100,NA,24,NA,NA,NA
Perform,84,2.04,NA,140,49,Liking,11,Low,3,30,NA,24,NA,NA,NA
Perform,84,2.881,NA,140,281,Liking,12,High,1,270,NA,24,NA,NA,NA
Perform,84,2.651,NA,140,143,Liking,13,Medium,4,100,NA,24,NA,NA,NA
Perform,84,7.269,NA,140,291,Liking,14,High,2,270,NA,24,NA,NA,NA
Perform,84,4.704,NA,140,99,Liking,15,Low,2,30,NA,24,NA,NA,NA
Perform,84,2.956,NA,140,282,Liking,16,High,2,270,NA,24,NA,NA,NA
Perform,84,4.236,NA,140,41,Liking,17,Low,5,30,NA,24,NA,NA,NA
