subjID,trial,effort_level,rating,rt,effort_time,sex,age,effort_steps,component,comp_type
3,1,Low,3,4.083,20.13976690004347,Male,17,35,Physical,Demand
3,1,Low,3,3.279,20.13976690004347,Male,17,35,Effort,Demand
3,1,Low,3,3.185,20.13976690004347,Male,17,35,Temporal,Demand
3,1,Low,5,4.972,20.13976690004347,Male,17,35,Performance,Demand
3,1,Low,3,1.898,20.13976690004347,Male,17,35,Frustration,Affective
3,1,Low,3,1.613,20.13976690004347,Male,17,35,Mental,Demand
3,1,Low,3,4.213,20.13976690004347,Male,17,35,Pleasure,Affective
3,2,Medium,4,5.556,52.67672060005134,Male,17,107,Performance,Demand
3,2,Medium,4,1.917,52.67672060005134,Male,17,107,Physical,Demand
3,2,Medium,3,4.901,52.67672060005134,Male,17,107,Pleasure,Affective
3,2,Medium,4,2.748,52.67672060005134,Male,17,107,Effort,Demand
3,2,Medium,3,3.07,52.67672060005134,Male,17,107,Frustration,Affective
3,2,Medium,3,2.039,52.67672060005134,Male,17,107,Mental,Demand
3,2,Medium,4,2.644,52.67672060005134,Male,17,107,Temporal,Demand
3,3,High,5,2.476,129.05165580002358,Male,17,274,Temporal,Demand
3,3,High,4,3.11,129.05165580002358,Male,17,274,Effort,Demand
3,3,High,5,2.691,129.05165580002358,Male,17,274,Physical,Demand
3,3,High,4,5.068,129.05165580002358,Male,17,274,Performance,Demand
3,3,High,3,5.509,129.05165580002358,Male,17,274,Mental,Demand
3,3,High,4,1.841,129.05165580002358,Male,17,274,Frustration,Affective
3,3,High,2,1.665,129.05165580002358,Male,17,274,Pleasure,Affective
3,4,Low,3,4.029,28.287178400030825,Male,17,59,Pleasure,Affective
3,4,Low,2,3.01,28.287178400030825,Male,17,59,Effort,Demand
3,4,Low,3,2.556,28.287178400030825,Male,17,59,Physical,Demand
3,4,Low,2,8.071,28.287178400030825,Male,17,59,Temporal,Demand
3,4,Low,4,1.899,28.287178400030825,Male,17,59,Performance,Demand
3,4,Low,2,2.289,28.287178400030825,Male,17,59,Frustration,Affective
3,4,Low,2,2.37,28.287178400030825,Male,17,59,Mental,Demand
3,5,High,4,1.854,121.32280259998517,Male,17,273,Mental,Demand
3,5,High,5,3.85,121.32280259998517,Male,17,273,Effort,Demand
3,5,High,4,1.542,121.32280259998517,Male,17,273,Frustration,Affective
3,5,High,3,2.338,121.32280259998517,Male,17,273,Performance,Demand
3,5,High,1,3.953,121.32280259998517,Male,17,273,Pleasure,Affective
3,5,High,5,10.788,121.32280259998517,Male,17,273,Temporal,Demand
3,5,High,5,2.004,121.32280259998517,Male,17,273,Physical,Demand
3,6,Medium,3,4.034,43.565727600012906,Male,17,103,Pleasure,Affective
3,6,Medium,3,4.154,43.565727600012906,Male,17,103,Mental,Demand
3,6,Medium,2,6.602,43.565727600012906,Male,17,103,Effort,Demand
3,6,Medium,3,2.799,43.565727600012906,Male,17,103,Performance,Demand
3,6,Medium,2,2.966,43.565727600012906,Male,17,103,Frustration,Affective
3,6,Medium,3,2.162,43.565727600012906,Male,17,103,Temporal,Demand
3,6,Medium,2,2.821,43.565727600012906,Male,17,103,Physical,Demand
3,7,High,5,2.415,116.77348629996412,Male,17,274,Temporal,Demand
3,7,High,5,3.28,116.77348629996412,Male,17,274,Frustration,Affective
3,7,High,5,2.316,116.77348629996412,Male,17,274,Effort,Demand
3,7,High,5,3.517,116.77348629996412,Male,17,274,Physical,Demand
3,7,High,3,2.695,116.77348629996412,Male,17,274,Performance,Demand
3,7,High,1,4.39,116.77348629996412,Male,17,274,Pleasure,Affective
3,7,High,5,5.675,116.77348629996412,Male,17,274,Mental,Demand
3,8,Medium,3,3.147,53.72862619999796,Male,17,103,Effort,Demand
3,8,Medium,3,2.617,53.72862619999796,Male,17,103,Physical,Demand
3,8,Medium,4,2.078,53.72862619999796,Male,17,103,Performance,Demand
3,8,Medium,3,1.919,53.72862619999796,Male,17,103,Frustration,Affective
3,8,Medium,2,1.349,53.72862619999796,Male,17,103,Temporal,Demand
3,8,Medium,3,4.339,53.72862619999796,Male,17,103,Mental,Demand
3,8,Medium,3,3.451,53.72862619999796,Male,17,103,Pleasure,Affective
3,9,Low,1,2.48,20.925574799999595,Male,17,33,Effort,Demand
3,9,Low,1,1.624,20.925574799999595,Male,17,33,Frustration,Affective
3,9,Low,1,2.956,20.925574799999595,Male,17,33,Temporal,Demand
3,9,Low,1,3.386,20.925574799999595,Male,17,33,Physical,Demand
3,9,Low,4,3.192,20.925574799999595,Male,17,33,Pleasure,Affective
3,9,Low,4,1.868,20.925574799999595,Male,17,33,Performance,Demand
3,9,Low,2,1.848,20.925574799999595,Male,17,33,Mental,Demand
3,10,Medium,2,1.806,62.64141209999798,Male,17,104,Frustration,Affective
3,10,Medium,4,1.485,62.64141209999798,Male,17,104,Performance,Demand
3,10,Medium,2,1.175,62.64141209999798,Male,17,104,Temporal,Demand
3,10,Medium,3,1.807,62.64141209999798,Male,17,104,Pleasure,Affective
3,10,Medium,2,2.322,62.64141209999798,Male,17,104,Physical,Demand
3,10,Medium,2,5.041,62.64141209999798,Male,17,104,Effort,Demand
3,10,Medium,2,1.558,62.64141209999798,Male,17,104,Mental,Demand
3,11,Low,1,1.798,20.72342240001308,Male,17,34,Frustration,Affective
3,11,Low,1,1.565,20.72342240001308,Male,17,34,Temporal,Demand
3,11,Low,1,2.446,20.72342240001308,Male,17,34,Effort,Demand
3,11,Low,1,2.034,20.72342240001308,Male,17,34,Mental,Demand
3,11,Low,1,1.939,20.72342240001308,Male,17,34,Physical,Demand
3,11,Low,4,2.156,20.72342240001308,Male,17,34,Pleasure,Affective
3,11,Low,4,1.469,20.72342240001308,Male,17,34,Performance,Demand
3,12,High,2,4.125,156.7072886999813,Male,17,272,Mental,Demand
3,12,High,3,2.199,156.7072886999813,Male,17,272,Performance,Demand
3,12,High,4,1.913,156.7072886999813,Male,17,272,Effort,Demand
3,12,High,4,2.562,156.7072886999813,Male,17,272,Temporal,Demand
3,12,High,2,1.334,156.7072886999813,Male,17,272,Pleasure,Affective
3,12,High,4,1.853,156.7072886999813,Male,17,272,Physical,Demand
3,12,High,4,5.027,156.7072886999813,Male,17,272,Frustration,Affective
3,13,Medium,4,1.119,57.02560260001337,Male,17,105,Performance,Demand
3,13,Medium,3,2.422,57.02560260001337,Male,17,105,Pleasure,Affective
3,13,Medium,4,2.129,57.02560260001337,Male,17,105,Frustration,Affective
3,13,Medium,2,1.927,57.02560260001337,Male,17,105,Mental,Demand
3,13,Medium,4,1.622,57.02560260001337,Male,17,105,Temporal,Demand
3,13,Medium,4,4.752,57.02560260001337,Male,17,105,Physical,Demand
3,13,Medium,4,3.449,57.02560260001337,Male,17,105,Effort,Demand
3,14,High,4,2.316,150.69432579999557,Male,17,273,Temporal,Demand
3,14,High,3,6.35,150.69432579999557,Male,17,273,Mental,Demand
3,14,High,4,2.626,150.69432579999557,Male,17,273,Effort,Demand
3,14,High,2,4.537,150.69432579999557,Male,17,273,Pleasure,Affective
3,14,High,4,2.318,150.69432579999557,Male,17,273,Performance,Demand
3,14,High,4,3.621,150.69432579999557,Male,17,273,Physical,Demand
3,14,High,4,2.124,150.69432579999557,Male,17,273,Frustration,Affective
3,15,Low,1,1.776,22.174807999981567,Male,17,34,Effort,Demand
3,15,Low,1,2.438,22.174807999981567,Male,17,34,Mental,Demand
3,15,Low,5,2.979,22.174807999981567,Male,17,34,Performance,Demand
3,15,Low,5,3.79,22.174807999981567,Male,17,34,Pleasure,Affective
3,15,Low,1,2.595,22.174807999981567,Male,17,34,Temporal,Demand
3,15,Low,2,3.33,22.174807999981567,Male,17,34,Physical,Demand
3,15,Low,1,3.585,22.174807999981567,Male,17,34,Frustration,Affective
3,16,High,5,1.89,168.00376480002888,Male,17,272,Frustration,Affective
3,16,High,2,3.59,168.00376480002888,Male,17,272,Temporal,Demand
3,16,High,1,6.005,168.00376480002888,Male,17,272,Pleasure,Affective
3,16,High,4,2.491,168.00376480002888,Male,17,272,Mental,Demand
3,16,High,5,2.095,168.00376480002888,Male,17,272,Physical,Demand
3,16,High,3,3.773,168.00376480002888,Male,17,272,Performance,Demand
3,16,High,5,2.911,168.00376480002888,Male,17,272,Effort,Demand
3,17,Low,1,3.229,20.706718900008127,Male,17,32,Frustration,Affective
3,17,Low,1,1.357,20.706718900008127,Male,17,32,Physical,Demand
3,17,Low,4,3.129,20.706718900008127,Male,17,32,Performance,Demand
3,17,Low,4,3.636,20.706718900008127,Male,17,32,Pleasure,Affective
3,17,Low,1,2.567,20.706718900008127,Male,17,32,Mental,Demand
3,17,Low,1,1.722,20.706718900008127,Male,17,32,Effort,Demand
3,17,Low,2,1.566,20.706718900008127,Male,17,32,Temporal,Demand
3,18,Medium,1,1.782,64.79135180002777,Male,17,101,Mental,Demand
3,18,Medium,4,1.496,64.79135180002777,Male,17,101,Performance,Demand
3,18,Medium,3,6.407,64.79135180002777,Male,17,101,Temporal,Demand
3,18,Medium,4,4.899,64.79135180002777,Male,17,101,Effort,Demand
3,18,Medium,3,5.86,64.79135180002777,Male,17,101,Pleasure,Affective
3,18,Medium,3,1.654,64.79135180002777,Male,17,101,Frustration,Affective
3,18,Medium,3,1.607,64.79135180002777,Male,17,101,Physical,Demand
4,1,Low,4,2.919,23.871915199968495,Male,21,33,Performance,Demand
4,1,Low,1,2.501,23.871915199968495,Male,21,33,Frustration,Affective
4,1,Low,1,1.704,23.871915199968495,Male,21,33,Effort,Demand
4,1,Low,3,1.376,23.871915199968495,Male,21,33,Pleasure,Affective
4,1,Low,1,1.394,23.871915199968495,Male,21,33,Physical,Demand
4,1,Low,3,8.777,23.871915199968495,Male,21,33,Temporal,Demand
4,1,Low,1,1.07,23.871915199968495,Male,21,33,Mental,Demand
4,2,Medium,1,1.851,64.34224590001395,Male,21,102,Physical,Demand
4,2,Medium,2,6.473,64.34224590001395,Male,21,102,Effort,Demand
4,2,Medium,5,1.412,64.34224590001395,Male,21,102,Performance,Demand
4,2,Medium,2,4.578,64.34224590001395,Male,21,102,Pleasure,Affective
4,2,Medium,2,3.739,64.34224590001395,Male,21,102,Temporal,Demand
4,2,Medium,1,1.054,64.34224590001395,Male,21,102,Frustration,Affective
4,2,Medium,1,1.316,64.34224590001395,Male,21,102,Mental,Demand
4,3,High,1,2.079,159.59315430000424,Male,21,274,Mental,Demand
4,3,High,3,2.788,159.59315430000424,Male,21,274,Physical,Demand
4,3,High,3,1.928,159.59315430000424,Male,21,274,Effort,Demand
4,3,High,2,1.499,159.59315430000424,Male,21,274,Frustration,Affective
4,3,High,2,1.252,159.59315430000424,Male,21,274,Temporal,Demand
4,3,High,5,2.835,159.59315430000424,Male,21,274,Performance,Demand
4,3,High,3,2.333,159.59315430000424,Male,21,274,Pleasure,Affective
4,4,Low,5,2.759,21.537965999974404,Male,21,34,Performance,Demand
4,4,Low,1,4.733,21.537965999974404,Male,21,34,Frustration,Affective
4,4,Low,1,0.804,21.537965999974404,Male,21,34,Mental,Demand
4,4,Low,1,1.431,21.537965999974404,Male,21,34,Temporal,Demand
4,4,Low,1,4.244,21.537965999974404,Male,21,34,Physical,Demand
4,4,Low,1,1.674,21.537965999974404,Male,21,34,Effort,Demand
4,4,Low,4,2.55,21.537965999974404,Male,21,34,Pleasure,Affective
4,5,High,2,3.046,201.693017099984,Male,21,272,Frustration,Affective
4,5,High,1,4.268,201.693017099984,Male,21,272,Mental,Demand
4,5,High,3,1.778,201.693017099984,Male,21,272,Physical,Demand
4,5,High,3,2.102,201.693017099984,Male,21,272,Effort,Demand
4,5,High,3,3.744,201.693017099984,Male,21,272,Pleasure,Affective
4,5,High,1,2.889,201.693017099984,Male,21,272,Temporal,Demand
4,5,High,4,3.942,201.693017099984,Male,21,272,Performance,Demand
4,6,Medium,3,2.166,76.08650499995565,Male,21,103,Pleasure,Affective
4,6,Medium,3,1.827,76.08650499995565,Male,21,103,Physical,Demand
4,6,Medium,2,1.823,76.08650499995565,Male,21,103,Mental,Demand
4,6,Medium,2,4.17,76.08650499995565,Male,21,103,Effort,Demand
4,6,Medium,4,2.7,76.08650499995565,Male,21,103,Performance,Demand
4,6,Medium,1,3.201,76.08650499995565,Male,21,103,Frustration,Affective
4,6,Medium,2,2.626,76.08650499995565,Male,21,103,Temporal,Demand
4,7,High,1,6.377,185.4492223999696,Male,21,273,Temporal,Demand
4,7,High,4,1.897,185.4492223999696,Male,21,273,Performance,Demand
4,7,High,1,1.327,185.4492223999696,Male,21,273,Mental,Demand
4,7,High,3,1.781,185.4492223999696,Male,21,273,Physical,Demand
4,7,High,3,2.103,185.4492223999696,Male,21,273,Effort,Demand
4,7,High,3,4.207,185.4492223999696,Male,21,273,Pleasure,Affective
4,7,High,2,2.308,185.4492223999696,Male,21,273,Frustration,Affective
4,8,Medium,1,3.717,74.10606530000223,Male,21,108,Frustration,Affective
4,8,Medium,2,2.77,74.10606530000223,Male,21,108,Effort,Demand
4,8,Medium,3,3.832,74.10606530000223,Male,21,108,Pleasure,Affective
4,8,Medium,1,2.903,74.10606530000223,Male,21,108,Mental,Demand
4,8,Medium,3,1.432,74.10606530000223,Male,21,108,Physical,Demand
4,8,Medium,4,2.717,74.10606530000223,Male,21,108,Performance,Demand
4,8,Medium,1,1.378,74.10606530000223,Male,21,108,Temporal,Demand
4,9,Low,4,2.531,23.037778300000355,Male,21,34,Temporal,Demand
4,9,Low,2,4.781,23.037778300000355,Male,21,34,Pleasure,Affective
4,9,Low,1,2.584,23.037778300000355,Male,21,34,Frustration,Affective
4,9,Low,1,2.523,23.037778300000355,Male,21,34,Physical,Demand
4,9,Low,1,2.645,23.037778300000355,Male,21,34,Mental,Demand
4,9,Low,4,2.894,23.037778300000355,Male,21,34,Performance,Demand
4,9,Low,1,1.388,23.037778300000355,Male,21,34,Effort,Demand
4,10,Medium,1,2.463,65.10677260003285,Male,21,104,Frustration,Affective
4,10,Medium,2,1.74,65.10677260003285,Male,21,104,Temporal,Demand
4,10,Medium,4,1.613,65.10677260003285,Male,21,104,Performance,Demand
4,10,Medium,1,1.369,65.10677260003285,Male,21,104,Effort,Demand
4,10,Medium,1,1.087,65.10677260003285,Male,21,104,Mental,Demand
4,10,Medium,1,1.004,65.10677260003285,Male,21,104,Physical,Demand
4,10,Medium,4,1.673,65.10677260003285,Male,21,104,Pleasure,Affective
4,11,Low,1,2.059,23.139509900007397,Male,21,32,Physical,Demand
4,11,Low,4,1.784,23.139509900007397,Male,21,32,Temporal,Demand
4,11,Low,1,3.304,23.139509900007397,Male,21,32,Effort,Demand
4,11,Low,1,1.334,23.139509900007397,Male,21,32,Mental,Demand
4,11,Low,4,1.698,23.139509900007397,Male,21,32,Performance,Demand
4,11,Low,3,1.802,23.139509900007397,Male,21,32,Frustration,Affective
4,11,Low,4,5.549,23.139509900007397,Male,21,32,Pleasure,Affective
4,12,High,1,4.986,206.24164889997337,Male,21,272,Temporal,Demand
4,12,High,4,3.85,206.24164889997337,Male,21,272,Pleasure,Affective
4,12,High,4,8.082,206.24164889997337,Male,21,272,Performance,Demand
4,12,High,2,7.215,206.24164889997337,Male,21,272,Frustration,Affective
4,12,High,3,2.517,206.24164889997337,Male,21,272,Effort,Demand
4,12,High,1,4.65,206.24164889997337,Male,21,272,Mental,Demand
4,12,High,2,3.508,206.24164889997337,Male,21,272,Physical,Demand
4,13,Medium,3,4.445,68.84052470000461,Male,21,104,Physical,Demand
4,13,Medium,2,1.584,68.84052470000461,Male,21,104,Temporal,Demand
4,13,Medium,3,2.574,68.84052470000461,Male,21,104,Pleasure,Affective
4,13,Medium,2,3.099,68.84052470000461,Male,21,104,Frustration,Affective
4,13,Medium,4,1.846,68.84052470000461,Male,21,104,Performance,Demand
4,13,Medium,1,1.386,68.84052470000461,Male,21,104,Mental,Demand
4,13,Medium,3,2.069,68.84052470000461,Male,21,104,Effort,Demand
4,14,High,4,7.238,183.4816873000236,Male,21,312,Performance,Demand
4,14,High,2,8.069,183.4816873000236,Male,21,312,Mental,Demand
4,14,High,3,5.481,183.4816873000236,Male,21,312,Physical,Demand
4,14,High,2,5.057,183.4816873000236,Male,21,312,Effort,Demand
4,14,High,1,4.801,183.4816873000236,Male,21,312,Temporal,Demand
4,14,High,3,4.914,183.4816873000236,Male,21,312,Pleasure,Affective
4,14,High,2,3.077,183.4816873000236,Male,21,312,Frustration,Affective
4,15,Low,2,2.96,27.622782499995083,Male,21,39,Frustration,Affective
4,15,Low,1,3.191,27.622782499995083,Male,21,39,Mental,Demand
4,15,Low,4,1.33,27.622782499995083,Male,21,39,Performance,Demand
4,15,Low,1,5.068,27.622782499995083,Male,21,39,Effort,Demand
4,15,Low,1,0.933,27.622782499995083,Male,21,39,Physical,Demand
4,15,Low,4,1.674,27.622782499995083,Male,21,39,Pleasure,Affective
4,15,Low,4,5.186,27.622782499995083,Male,21,39,Temporal,Demand
4,16,High,3,3.297,171.4875254999497,Male,21,294,Pleasure,Affective
4,16,High,1,4.117,171.4875254999497,Male,21,294,Mental,Demand
4,16,High,3,3.594,171.4875254999497,Male,21,294,Performance,Demand
4,16,High,2,1.222,171.4875254999497,Male,21,294,Frustration,Affective
4,16,High,2,2.52,171.4875254999497,Male,21,294,Temporal,Demand
4,16,High,3,3.362,171.4875254999497,Male,21,294,Physical,Demand
4,16,High,4,2.975,171.4875254999497,Male,21,294,Effort,Demand
4,17,Low,2,6.991,18.790872499987017,Male,21,36,Frustration,Affective
4,17,Low,2,2.666,18.790872499987017,Male,21,36,Effort,Demand
4,17,Low,1,1.175,18.790872499987017,Male,21,36,Mental,Demand
4,17,Low,4,2.55,18.790872499987017,Male,21,36,Temporal,Demand
4,17,Low,4,2.48,18.790872499987017,Male,21,36,Performance,Demand
4,17,Low,3,2.423,18.790872499987017,Male,21,36,Pleasure,Affective
4,17,Low,1,1.656,18.790872499987017,Male,21,36,Physical,Demand
4,18,Medium,2,3.822,69.47239530005027,Male,21,106,Effort,Demand
4,18,Medium,4,4.949,69.47239530005027,Male,21,106,Performance,Demand
4,18,Medium,1,2.872,69.47239530005027,Male,21,106,Physical,Demand
4,18,Medium,1,4.302,69.47239530005027,Male,21,106,Mental,Demand
4,18,Medium,2,2.248,69.47239530005027,Male,21,106,Temporal,Demand
4,18,Medium,3,1.152,69.47239530005027,Male,21,106,Pleasure,Affective
4,18,Medium,2,2.047,69.47239530005027,Male,21,106,Frustration,Affective
5,1,Low,3,6.945,16.80752889998257,Female,21,38,Performance,Demand
5,1,Low,1,2.34,16.80752889998257,Female,21,38,Mental,Demand
5,1,Low,1,8.325,16.80752889998257,Female,21,38,Effort,Demand
5,1,Low,3,2.47,16.80752889998257,Female,21,38,Temporal,Demand
5,1,Low,1,3.884,16.80752889998257,Female,21,38,Physical,Demand
5,1,Low,1,1.754,16.80752889998257,Female,21,38,Frustration,Affective
5,1,Low,2,2.467,16.80752889998257,Female,21,38,Pleasure,Affective
5,2,Medium,3,3.692,48.74760820000665,Female,21,107,Performance,Demand
5,2,Medium,2,2.258,48.74760820000665,Female,21,107,Physical,Demand
5,2,Medium,1,1.316,48.74760820000665,Female,21,107,Frustration,Affective
5,2,Medium,2,2.424,48.74760820000665,Female,21,107,Pleasure,Affective
5,2,Medium,3,7.741,48.74760820000665,Female,21,107,Effort,Demand
5,2,Medium,1,1.532,48.74760820000665,Female,21,107,Mental,Demand
5,2,Medium,2,8.118,48.74760820000665,Female,21,107,Temporal,Demand
5,3,High,3,6.388,120.35719989996868,Female,21,279,Pleasure,Affective
5,3,High,3,6.269,120.35719989996868,Female,21,279,Performance,Demand
5,3,High,1,3.19,120.35719989996868,Female,21,279,Frustration,Affective
5,3,High,3,1.765,120.35719989996868,Female,21,279,Physical,Demand
5,3,High,1,1.563,120.35719989996868,Female,21,279,Mental,Demand
5,3,High,2,4.194,120.35719989996868,Female,21,279,Effort,Demand
5,3,High,2,1.929,120.35719989996868,Female,21,279,Temporal,Demand
5,4,Low,1,4.212,16.209048200049438,Female,21,33,Frustration,Affective
5,4,Low,3,1.96,16.209048200049438,Female,21,33,Pleasure,Affective
5,4,Low,1,1.931,16.209048200049438,Female,21,33,Temporal,Demand
5,4,Low,2,2.772,16.209048200049438,Female,21,33,Effort,Demand
5,4,Low,2,1.41,16.209048200049438,Female,21,33,Physical,Demand
5,4,Low,1,1.592,16.209048200049438,Female,21,33,Mental,Demand
5,4,Low,3,1.546,16.209048200049438,Female,21,33,Performance,Demand
5,5,High,3,3.57,124.82086470001376,Female,21,275,Physical,Demand
5,5,High,2,1.401,124.82086470001376,Female,21,275,Temporal,Demand
5,5,High,1,1.745,124.82086470001376,Female,21,275,Mental,Demand
5,5,High,2,4.253,124.82086470001376,Female,21,275,Performance,Demand
5,5,High,3,6.582,124.82086470001376,Female,21,275,Effort,Demand
5,5,High,1,2.221,124.82086470001376,Female,21,275,Frustration,Affective
5,5,High,2,3.26,124.82086470001376,Female,21,275,Pleasure,Affective
5,6,Medium,3,3.573,52.445053400006145,Female,21,105,Performance,Demand
5,6,Medium,1,2.063,52.445053400006145,Female,21,105,Mental,Demand
5,6,Medium,2,4.273,52.445053400006145,Female,21,105,Effort,Demand
5,6,Medium,2,1.532,52.445053400006145,Female,21,105,Temporal,Demand
5,6,Medium,1,1.446,52.445053400006145,Female,21,105,Frustration,Affective
5,6,Medium,2,3.457,52.445053400006145,Female,21,105,Physical,Demand
5,6,Medium,3,5.178,52.445053400006145,Female,21,105,Pleasure,Affective
5,7,High,1,4.382,126.88738499995088,Female,21,276,Mental,Demand
5,7,High,2,1.901,126.88738499995088,Female,21,276,Temporal,Demand
5,7,High,2,2.893,126.88738499995088,Female,21,276,Pleasure,Affective
5,7,High,3,2.791,126.88738499995088,Female,21,276,Physical,Demand
5,7,High,1,2.717,126.88738499995088,Female,21,276,Frustration,Affective
5,7,High,3,3.834,126.88738499995088,Female,21,276,Effort,Demand
5,7,High,3,2.138,126.88738499995088,Female,21,276,Performance,Demand
5,8,Medium,2,2.799,49.131366200046614,Female,21,106,Physical,Demand
5,8,Medium,1,1.675,49.131366200046614,Female,21,106,Mental,Demand
5,8,Medium,1,3.214,49.131366200046614,Female,21,106,Frustration,Affective
5,8,Medium,3,4.179,49.131366200046614,Female,21,106,Pleasure,Affective
5,8,Medium,2,2.185,49.131366200046614,Female,21,106,Temporal,Demand
5,8,Medium,2,5.035,49.131366200046614,Female,21,106,Effort,Demand
5,8,Medium,3,1.222,49.131366200046614,Female,21,106,Performance,Demand
5,9,Low,2,5.181,16.024685800017323,Female,21,34,Effort,Demand
5,9,Low,3,1.025,16.024685800017323,Female,21,34,Performance,Demand
5,9,Low,2,1.286,16.024685800017323,Female,21,34,Temporal,Demand
5,9,Low,2,1.835,16.024685800017323,Female,21,34,Physical,Demand
5,9,Low,1,1.347,16.024685800017323,Female,21,34,Frustration,Affective
5,9,Low,2,2.662,16.024685800017323,Female,21,34,Pleasure,Affective
5,9,Low,1,1.456,16.024685800017323,Female,21,34,Mental,Demand
5,10,Medium,2,3.985,49.14728530001594,Female,21,106,Physical,Demand
5,10,Medium,3,1.877,49.14728530001594,Female,21,106,Performance,Demand
5,10,Medium,2,4.848,49.14728530001594,Female,21,106,Effort,Demand
5,10,Medium,2,2.478,49.14728530001594,Female,21,106,Pleasure,Affective
5,10,Medium,3,6.807,49.14728530001594,Female,21,106,Temporal,Demand
5,10,Medium,1,2.149,49.14728530001594,Female,21,106,Mental,Demand
5,10,Medium,1,3.384,49.14728530001594,Female,21,106,Frustration,Affective
5,11,Low,3,4.552,16.560047199949622,Female,21,34,Temporal,Demand
5,11,Low,2,1.508,16.560047199949622,Female,21,34,Physical,Demand
5,11,Low,3,1.077,16.560047199949622,Female,21,34,Performance,Demand
5,11,Low,3,3.657,16.560047199949622,Female,21,34,Pleasure,Affective
5,11,Low,2,2.147,16.560047199949622,Female,21,34,Effort,Demand
5,11,Low,1,1.408,16.560047199949622,Female,21,34,Mental,Demand
5,11,Low,1,2.534,16.560047199949622,Female,21,34,Frustration,Affective
5,12,High,2,5.18,128.18651959998533,Female,21,278,Pleasure,Affective
5,12,High,3,1.813,128.18651959998533,Female,21,278,Performance,Demand
5,12,High,3,4.186,128.18651959998533,Female,21,278,Temporal,Demand
5,12,High,3,2.581,128.18651959998533,Female,21,278,Physical,Demand
5,12,High,1,2.318,128.18651959998533,Female,21,278,Mental,Demand
5,12,High,3,3.447,128.18651959998533,Female,21,278,Effort,Demand
5,12,High,1,1.928,128.18651959998533,Female,21,278,Frustration,Affective
5,13,Medium,2,3.007,49.51385739998659,Female,21,105,Physical,Demand
5,13,Medium,3,5.339,49.51385739998659,Female,21,105,Temporal,Demand
5,13,Medium,1,1.824,49.51385739998659,Female,21,105,Mental,Demand
5,13,Medium,1,1.738,49.51385739998659,Female,21,105,Frustration,Affective
5,13,Medium,3,1.665,49.51385739998659,Female,21,105,Pleasure,Affective
5,13,Medium,3,2.029,49.51385739998659,Female,21,105,Performance,Demand
5,13,Medium,3,3.098,49.51385739998659,Female,21,105,Effort,Demand
5,14,High,3,2.649,126.95397959998807,Female,21,276,Physical,Demand
5,14,High,3,6.293,126.95397959998807,Female,21,276,Temporal,Demand
5,14,High,1,3.392,126.95397959998807,Female,21,276,Frustration,Affective
5,14,High,1,2.255,126.95397959998807,Female,21,276,Mental,Demand
5,14,High,2,3.717,126.95397959998807,Female,21,276,Pleasure,Affective
5,14,High,3,2.858,126.95397959998807,Female,21,276,Effort,Demand
5,14,High,3,1.411,126.95397959998807,Female,21,276,Performance,Demand
5,15,Low,1,2.933,16.92650010000216,Female,21,37,Mental,Demand
5,15,Low,3,3.938,16.92650010000216,Female,21,37,Pleasure,Affective
5,15,Low,3,3.409,16.92650010000216,Female,21,37,Performance,Demand
5,15,Low,2,3.9,16.92650010000216,Female,21,37,Physical,Demand
5,15,Low,3,1.716,16.92650010000216,Female,21,37,Effort,Demand
5,15,Low,2,2.573,16.92650010000216,Female,21,37,Temporal,Demand
5,15,Low,1,2.579,16.92650010000216,Female,21,37,Frustration,Affective
5,16,High,3,1.925,125.236470200005,Female,21,275,Physical,Demand
5,16,High,3,1.913,125.236470200005,Female,21,275,Performance,Demand
5,16,High,3,2.923,125.236470200005,Female,21,275,Temporal,Demand
5,16,High,3,2.682,125.236470200005,Female,21,275,Effort,Demand
5,16,High,1,1.619,125.236470200005,Female,21,275,Mental,Demand
5,16,High,2,3.189,125.236470200005,Female,21,275,Pleasure,Affective
5,16,High,1,2.604,125.236470200005,Female,21,275,Frustration,Affective
5,17,Low,3,4.181,17.076017700019293,Female,21,37,Performance,Demand
5,17,Low,2,5.176,17.076017700019293,Female,21,37,Temporal,Demand
5,17,Low,3,3.436,17.076017700019293,Female,21,37,Pleasure,Affective
5,17,Low,1,1.657,17.076017700019293,Female,21,37,Mental,Demand
5,17,Low,2,2.629,17.076017700019293,Female,21,37,Physical,Demand
5,17,Low,1,1.405,17.076017700019293,Female,21,37,Frustration,Affective
5,17,Low,2,3.752,17.076017700019293,Female,21,37,Effort,Demand
5,18,Medium,1,2.966,48.41547210002318,Female,21,106,Frustration,Affective
5,18,Medium,1,1.655,48.41547210002318,Female,21,106,Mental,Demand
5,18,Medium,2,2.369,48.41547210002318,Female,21,106,Effort,Demand
5,18,Medium,2,1.301,48.41547210002318,Female,21,106,Physical,Demand
5,18,Medium,2,1.37,48.41547210002318,Female,21,106,Temporal,Demand
5,18,Medium,2,2.652,48.41547210002318,Female,21,106,Pleasure,Affective
5,18,Medium,3,1.265,48.41547210002318,Female,21,106,Performance,Demand
6,1,Low,2,7.706,27.906156999990344,Male,16,32,Effort,Demand
6,1,Low,1,3.856,27.906156999990344,Male,16,32,Frustration,Affective
6,1,Low,3,4.924,27.906156999990344,Male,16,32,Mental,Demand
6,1,Low,3,5.174,27.906156999990344,Male,16,32,Temporal,Demand
6,1,Low,4,4.268,27.906156999990344,Male,16,32,Performance,Demand
6,1,Low,4,5.072,27.906156999990344,Male,16,32,Pleasure,Affective
6,1,Low,4,8.292,27.906156999990344,Male,16,32,Physical,Demand
6,2,Medium,4,5.531,92.76790209999308,Male,16,103,Physical,Demand
6,2,Medium,3,3.457,92.76790209999308,Male,16,103,Mental,Demand
6,2,Medium,4,6.645,92.76790209999308,Male,16,103,Temporal,Demand
6,2,Medium,4,3.47,92.76790209999308,Male,16,103,Performance,Demand
6,2,Medium,1,4.903,92.76790209999308,Male,16,103,Frustration,Affective
6,2,Medium,4,6.343,92.76790209999308,Male,16,103,Pleasure,Affective
6,2,Medium,3,6.122,92.76790209999308,Male,16,103,Effort,Demand
6,3,High,4,4.597,252.94935890001943,Male,16,273,Performance,Demand
6,3,High,3,2.34,252.94935890001943,Male,16,273,Mental,Demand
6,3,High,1,4.751,252.94935890001943,Male,16,273,Frustration,Affective
6,3,High,3,6.747,252.94935890001943,Male,16,273,Effort,Demand
6,3,High,4,18.652,252.94935890001943,Male,16,273,Pleasure,Affective
6,3,High,4,2.446,252.94935890001943,Male,16,273,Physical,Demand
6,3,High,4,3.259,252.94935890001943,Male,16,273,Temporal,Demand
6,4,Low,2,7.532,29.70344740001019,Male,16,33,Physical,Demand
6,4,Low,3,2.914,29.70344740001019,Male,16,33,Temporal,Demand
6,4,Low,2,6.405,29.70344740001019,Male,16,33,Effort,Demand
6,4,Low,4,2.394,29.70344740001019,Male,16,33,Pleasure,Affective
6,4,Low,2,4.393,29.70344740001019,Male,16,33,Mental,Demand
6,4,Low,4,2.504,29.70344740001019,Male,16,33,Performance,Demand
6,4,Low,1,2.723,29.70344740001019,Male,16,33,Frustration,Affective
6,5,High,4,4.795,241.4167128999834,Male,16,273,Performance,Demand
6,5,High,4,10.24,241.4167128999834,Male,16,273,Temporal,Demand
6,5,High,3,3.427,241.4167128999834,Male,16,273,Pleasure,Affective
6,5,High,4,5.283,241.4167128999834,Male,16,273,Physical,Demand
6,5,High,4,1.653,241.4167128999834,Male,16,273,Mental,Demand
6,5,High,2,9.516,241.4167128999834,Male,16,273,Frustration,Affective
6,5,High,4,8.132,241.4167128999834,Male,16,273,Effort,Demand
6,6,Medium,2,4.197,92.23559660004685,Male,16,103,Frustration,Affective
6,6,Medium,4,4.323,92.23559660004685,Male,16,103,Performance,Demand
6,6,Medium,2,7.174,92.23559660004685,Male,16,103,Pleasure,Affective
6,6,Medium,4,3.13,92.23559660004685,Male,16,103,Effort,Demand
6,6,Medium,4,2.552,92.23559660004685,Male,16,103,Mental,Demand
6,6,Medium,4,4.422,92.23559660004685,Male,16,103,Temporal,Demand
6,6,Medium,4,1.711,92.23559660004685,Male,16,103,Physical,Demand
6,7,High,2,10.741,253.4804443999892,Male,16,272,Pleasure,Affective
6,7,High,4,5.941,253.4804443999892,Male,16,272,Physical,Demand
6,7,High,4,2.537,253.4804443999892,Male,16,272,Mental,Demand
6,7,High,4,2.002,253.4804443999892,Male,16,272,Effort,Demand
6,7,High,4,2.266,253.4804443999892,Male,16,272,Performance,Demand
6,7,High,4,3.528,253.4804443999892,Male,16,272,Temporal,Demand
6,7,High,2,2.79,253.4804443999892,Male,16,272,Frustration,Affective
6,8,Medium,4,4.482,92.399674699991,Male,16,102,Performance,Demand
6,8,Medium,4,1.529,92.399674699991,Male,16,102,Mental,Demand
6,8,Medium,4,7.938,92.399674699991,Male,16,102,Effort,Demand
6,8,Medium,2,6.569,92.399674699991,Male,16,102,Frustration,Affective
6,8,Medium,5,3.739,92.399674699991,Male,16,102,Physical,Demand
6,8,Medium,2,6.088,92.399674699991,Male,16,102,Pleasure,Affective
6,8,Medium,4,2.115,92.399674699991,Male,16,102,Temporal,Demand
6,9,Low,1,3.613,29.289787899993826,Male,16,33,Frustration,Affective
6,9,Low,4,2.3,29.289787899993826,Male,16,33,Performance,Demand
6,9,Low,3,2.812,29.289787899993826,Male,16,33,Physical,Demand
6,9,Low,3,1.654,29.289787899993826,Male,16,33,Temporal,Demand
6,9,Low,3,1.072,29.289787899993826,Male,16,33,Effort,Demand
6,9,Low,3,3.72,29.289787899993826,Male,16,33,Pleasure,Affective
6,9,Low,3,2.703,29.289787899993826,Male,16,33,Mental,Demand
6,10,Medium,4,3.367,95.96706160000758,Male,16,103,Temporal,Demand
6,10,Medium,2,4.672,95.96706160000758,Male,16,103,Pleasure,Affective
6,10,Medium,4,3.389,95.96706160000758,Male,16,103,Mental,Demand
6,10,Medium,2,3.49,95.96706160000758,Male,16,103,Frustration,Affective
6,10,Medium,4,4.421,95.96706160000758,Male,16,103,Physical,Demand
6,10,Medium,4,5.564,95.96706160000758,Male,16,103,Effort,Demand
6,10,Medium,4,3.77,95.96706160000758,Male,16,103,Performance,Demand
6,11,Low,3,4.379,29.437676900008228,Male,16,32,Effort,Demand
6,11,Low,3,2.922,29.437676900008228,Male,16,32,Temporal,Demand
6,11,Low,4,3.3,29.437676900008228,Male,16,32,Physical,Demand
6,11,Low,4,2.696,29.437676900008228,Male,16,32,Mental,Demand
6,11,Low,4,1.653,29.437676900008228,Male,16,32,Performance,Demand
6,11,Low,3,3.875,29.437676900008228,Male,16,32,Pleasure,Affective
6,11,Low,2,2.689,29.437676900008228,Male,16,32,Frustration,Affective
6,12,High,2,8.766,248.44812310003908,Male,16,275,Pleasure,Affective
6,12,High,5,2.2,248.44812310003908,Male,16,275,Physical,Demand
6,12,High,4,6.506,248.44812310003908,Male,16,275,Temporal,Demand
6,12,High,4,1.644,248.44812310003908,Male,16,275,Mental,Demand
6,12,High,2,10.51,248.44812310003908,Male,16,275,Frustration,Affective
6,12,High,4,4.038,248.44812310003908,Male,16,275,Performance,Demand
6,12,High,4,3.675,248.44812310003908,Male,16,275,Effort,Demand
6,13,Medium,4,2.432,99.83126219996484,Male,16,108,Temporal,Demand
6,13,Medium,5,1.782,99.83126219996484,Male,16,108,Physical,Demand
6,13,Medium,4,2.078,99.83126219996484,Male,16,108,Performance,Demand
6,13,Medium,5,5.923,99.83126219996484,Male,16,108,Mental,Demand
6,13,Medium,4,3.258,99.83126219996484,Male,16,108,Effort,Demand
6,13,Medium,2,3.472,99.83126219996484,Male,16,108,Pleasure,Affective
6,13,Medium,2,4.839,99.83126219996484,Male,16,108,Frustration,Affective
6,14,High,4,3.534,249.38277710002149,Male,16,272,Physical,Demand
6,14,High,2,8.016,249.38277710002149,Male,16,272,Frustration,Affective
6,14,High,4,2.002,249.38277710002149,Male,16,272,Performance,Demand
6,14,High,4,4.193,249.38277710002149,Male,16,272,Effort,Demand
6,14,High,4,3.693,249.38277710002149,Male,16,272,Temporal,Demand
6,14,High,2,3.003,249.38277710002149,Male,16,272,Pleasure,Affective
6,14,High,5,3.969,249.38277710002149,Male,16,272,Mental,Demand
6,15,Low,4,3.911,25.557544499984942,Male,16,26,Performance,Demand
6,15,Low,2,4.749,25.557544499984942,Male,16,26,Physical,Demand
6,15,Low,2,1.742,25.557544499984942,Male,16,26,Frustration,Affective
6,15,Low,3,4.034,25.557544499984942,Male,16,26,Effort,Demand
6,15,Low,3,1.987,25.557544499984942,Male,16,26,Pleasure,Affective
6,15,Low,4,5.589,25.557544499984942,Male,16,26,Temporal,Demand
6,15,Low,4,3.539,25.557544499984942,Male,16,26,Mental,Demand
6,16,High,2,3.582,250.49840089998904,Male,16,273,Pleasure,Affective
6,16,High,3,2.769,250.49840089998904,Male,16,273,Frustration,Affective
6,16,High,4,2.395,250.49840089998904,Male,16,273,Temporal,Demand
6,16,High,5,2.498,250.49840089998904,Male,16,273,Physical,Demand
6,16,High,4,3.151,250.49840089998904,Male,16,273,Performance,Demand
6,16,High,4,4.704,250.49840089998904,Male,16,273,Effort,Demand
6,16,High,5,1.898,250.49840089998904,Male,16,273,Mental,Demand
6,17,Low,3,4.257,29.073207699984778,Male,16,32,Pleasure,Affective
6,17,Low,4,2.336,29.073207699984778,Male,16,32,Performance,Demand
6,17,Low,4,3.959,29.073207699984778,Male,16,32,Mental,Demand
6,17,Low,2,3.684,29.073207699984778,Male,16,32,Frustration,Affective
6,17,Low,4,2.602,29.073207699984778,Male,16,32,Physical,Demand
6,17,Low,4,4.552,29.073207699984778,Male,16,32,Temporal,Demand
6,17,Low,4,5.681,29.073207699984778,Male,16,32,Effort,Demand
6,18,Medium,5,3.751,105.17956429999322,Male,16,103,Physical,Demand
6,18,Medium,3,3.992,105.17956429999322,Male,16,103,Frustration,Affective
6,18,Medium,5,1.791,105.17956429999322,Male,16,103,Mental,Demand
6,18,Medium,4,2.568,105.17956429999322,Male,16,103,Effort,Demand
6,18,Medium,4,2.09,105.17956429999322,Male,16,103,Performance,Demand
6,18,Medium,4,4.001,105.17956429999322,Male,16,103,Temporal,Demand
6,18,Medium,2,2.846,105.17956429999322,Male,16,103,Pleasure,Affective
7,1,Low,2,8.542,22.174778400047217,Female,20,33,Effort,Demand
7,1,Low,5,3.13,22.174778400047217,Female,20,33,Performance,Demand
7,1,Low,3,1.087,22.174778400047217,Female,20,33,Pleasure,Affective
7,1,Low,3,0.954,22.174778400047217,Female,20,33,Temporal,Demand
7,1,Low,2,8.462,22.174778400047217,Female,20,33,Frustration,Affective
7,1,Low,2,2.922,22.174778400047217,Female,20,33,Physical,Demand
7,1,Low,2,5.452,22.174778400047217,Female,20,33,Mental,Demand
7,2,Medium,3,3.194,69.77170240000123,Female,20,104,Temporal,Demand
7,2,Medium,3,4.521,69.77170240000123,Female,20,104,Effort,Demand
7,2,Medium,5,1.874,69.77170240000123,Female,20,104,Performance,Demand
7,2,Medium,2,4.647,69.77170240000123,Female,20,104,Frustration,Affective
7,2,Medium,3,1.928,69.77170240000123,Female,20,104,Physical,Demand
7,2,Medium,3,4.602,69.77170240000123,Female,20,104,Pleasure,Affective
7,2,Medium,2,4.845,69.77170240000123,Female,20,104,Mental,Demand
7,3,High,4,2.768,184.5671531000407,Female,20,273,Effort,Demand
7,3,High,4,2.603,184.5671531000407,Female,20,273,Frustration,Affective
7,3,High,2,5.48,184.5671531000407,Female,20,273,Pleasure,Affective
7,3,High,3,2.039,184.5671531000407,Female,20,273,Mental,Demand
7,3,High,3,2.118,184.5671531000407,Female,20,273,Temporal,Demand
7,3,High,4,1.892,184.5671531000407,Female,20,273,Physical,Demand
7,3,High,5,3.572,184.5671531000407,Female,20,273,Performance,Demand
7,4,Low,2,7.475,23.2558264999534,Female,20,32,Effort,Demand
7,4,Low,2,1.892,23.2558264999534,Female,20,32,Temporal,Demand
7,4,Low,2,2.201,23.2558264999534,Female,20,32,Physical,Demand
7,4,Low,2,3.336,23.2558264999534,Female,20,32,Mental,Demand
7,4,Low,3,2.48,23.2558264999534,Female,20,32,Pleasure,Affective
7,4,Low,5,1.93,23.2558264999534,Female,20,32,Performance,Demand
7,4,Low,2,3.918,23.2558264999534,Female,20,32,Frustration,Affective
7,5,High,4,2.484,186.4661620000261,Female,20,274,Frustration,Affective
7,5,High,2,2.666,186.4661620000261,Female,20,274,Pleasure,Affective
7,5,High,2,1.485,186.4661620000261,Female,20,274,Mental,Demand
7,5,High,4,2.412,186.4661620000261,Female,20,274,Effort,Demand
7,5,High,4,1.721,186.4661620000261,Female,20,274,Performance,Demand
7,5,High,3,1.667,186.4661620000261,Female,20,274,Temporal,Demand
7,5,High,4,1.863,186.4661620000261,Female,20,274,Physical,Demand
7,6,Medium,3,2.715,71.77315330004785,Female,20,103,Physical,Demand
7,6,Medium,2,6.62,71.77315330004785,Female,20,103,Pleasure,Affective
7,6,Medium,3,2.021,71.77315330004785,Female,20,103,Effort,Demand
7,6,Medium,3,1.225,71.77315330004785,Female,20,103,Temporal,Demand
7,6,Medium,2,2.287,71.77315330004785,Female,20,103,Mental,Demand
7,6,Medium,4,2.037,71.77315330004785,Female,20,103,Performance,Demand
7,6,Medium,4,3.303,71.77315330004785,Female,20,103,Frustration,Affective
7,7,High,4,3.476,183.8501527000335,Female,20,275,Performance,Demand
7,7,High,4,2.867,183.8501527000335,Female,20,275,Frustration,Affective
7,7,High,3,2.1,183.8501527000335,Female,20,275,Mental,Demand
7,7,High,3,1.187,183.8501527000335,Female,20,275,Temporal,Demand
7,7,High,4,2.224,183.8501527000335,Female,20,275,Physical,Demand
7,7,High,2,2.324,183.8501527000335,Female,20,275,Pleasure,Affective
7,7,High,3,2.62,183.8501527000335,Female,20,275,Effort,Demand
7,8,Medium,2,7.329,71.38969489996089,Female,20,104,Pleasure,Affective
7,8,Medium,3,1.991,71.38969489996089,Female,20,104,Physical,Demand
7,8,Medium,4,1.749,71.38969489996089,Female,20,104,Performance,Demand
7,8,Medium,3,1.61,71.38969489996089,Female,20,104,Effort,Demand
7,8,Medium,2,1.905,71.38969489996089,Female,20,104,Mental,Demand
7,8,Medium,4,3.03,71.38969489996089,Female,20,104,Frustration,Affective
7,8,Medium,3,1.04,71.38969489996089,Female,20,104,Temporal,Demand
7,9,Low,4,6.1,23.48762510000961,Female,20,35,Performance,Demand
7,9,Low,3,1.174,23.48762510000961,Female,20,35,Temporal,Demand
7,9,Low,2,3.305,23.48762510000961,Female,20,35,Mental,Demand
7,9,Low,2,1.707,23.48762510000961,Female,20,35,Frustration,Affective
7,9,Low,3,2.143,23.48762510000961,Female,20,35,Pleasure,Affective
7,9,Low,2,4.017,23.48762510000961,Female,20,35,Effort,Demand
7,9,Low,2,1.555,23.48762510000961,Female,20,35,Physical,Demand
7,10,Medium,3,2.459,73.68877829995472,Female,20,104,Pleasure,Affective
7,10,Medium,3,4.469,73.68877829995472,Female,20,104,Effort,Demand
7,10,Medium,3,2.053,73.68877829995472,Female,20,104,Frustration,Affective
7,10,Medium,3,1.706,73.68877829995472,Female,20,104,Physical,Demand
7,10,Medium,2,3.434,73.68877829995472,Female,20,104,Mental,Demand
7,10,Medium,4,2.556,73.68877829995472,Female,20,104,Performance,Demand
7,10,Medium,3,1.209,73.68877829995472,Female,20,104,Temporal,Demand
7,11,Low,4,4.013,24.272585900034755,Female,20,34,Performance,Demand
7,11,Low,3,1.638,24.272585900034755,Female,20,34,Temporal,Demand
7,11,Low,2,1.612,24.272585900034755,Female,20,34,Mental,Demand
7,11,Low,2,1.354,24.272585900034755,Female,20,34,Effort,Demand
7,11,Low,3,1.174,24.272585900034755,Female,20,34,Pleasure,Affective
7,11,Low,2,1.231,24.272585900034755,Female,20,34,Physical,Demand
7,11,Low,2,1.187,24.272585900034755,Female,20,34,Frustration,Affective
7,12,High,3,3.312,191.66408920002868,Female,20,274,Temporal,Demand
7,12,High,2,12.166,191.66408920002868,Female,20,274,Pleasure,Affective
7,12,High,4,2.183,191.66408920002868,Female,20,274,Effort,Demand
7,12,High,4,1.585,191.66408920002868,Female,20,274,Frustration,Affective
7,12,High,4,1.732,191.66408920002868,Female,20,274,Physical,Demand
7,12,High,2,1.564,191.66408920002868,Female,20,274,Mental,Demand
7,12,High,4,1.555,191.66408920002868,Female,20,274,Performance,Demand
7,13,Medium,3,2.516,70.04114159999881,Female,20,103,Pleasure,Affective
7,13,Medium,3,2.12,70.04114159999881,Female,20,103,Temporal,Demand
7,13,Medium,3,1.597,70.04114159999881,Female,20,103,Physical,Demand
7,13,Medium,4,2.305,70.04114159999881,Female,20,103,Performance,Demand
7,13,Medium,3,1.295,70.04114159999881,Female,20,103,Frustration,Affective
7,13,Medium,2,1.182,70.04114159999881,Female,20,103,Mental,Demand
7,13,Medium,3,1.517,70.04114159999881,Female,20,103,Effort,Demand
7,14,High,2,6.56,189.38162449997617,Female,20,281,Mental,Demand
7,14,High,4,3.62,189.38162449997617,Female,20,281,Frustration,Affective
7,14,High,4,1.458,189.38162449997617,Female,20,281,Effort,Demand
7,14,High,4,1.492,189.38162449997617,Female,20,281,Performance,Demand
7,14,High,3,1.452,189.38162449997617,Female,20,281,Pleasure,Affective
7,14,High,2,2.877,189.38162449997617,Female,20,281,Temporal,Demand
7,14,High,4,1.241,189.38162449997617,Female,20,281,Physical,Demand
7,15,Low,4,4.207,23.522127299977,Female,20,35,Temporal,Demand
7,15,Low,4,1.426,23.522127299977,Female,20,35,Performance,Demand
7,15,Low,3,2.106,23.522127299977,Female,20,35,Pleasure,Affective
7,15,Low,3,1.351,23.522127299977,Female,20,35,Frustration,Affective
7,15,Low,2,1.61,23.522127299977,Female,20,35,Mental,Demand
7,15,Low,3,1.119,23.522127299977,Female,20,35,Physical,Demand
7,15,Low,2,4.266,23.522127299977,Female,20,35,Effort,Demand
7,16,High,1,4.153,179.8359631000203,Female,20,275,Temporal,Demand
7,16,High,2,2.6,179.8359631000203,Female,20,275,Pleasure,Affective
7,16,High,4,1.304,179.8359631000203,Female,20,275,Performance,Demand
7,16,High,2,1.408,179.8359631000203,Female,20,275,Mental,Demand
7,16,High,4,1.849,179.8359631000203,Female,20,275,Frustration,Affective
7,16,High,4,1.27,179.8359631000203,Female,20,275,Physical,Demand
7,16,High,4,1.632,179.8359631000203,Female,20,275,Effort,Demand
7,17,Low,3,2.459,21.67310090002138,Female,20,33,Frustration,Affective
7,17,Low,2,1.802,21.67310090002138,Female,20,33,Mental,Demand
7,17,Low,2,1.878,21.67310090002138,Female,20,33,Effort,Demand
7,17,Low,4,2.873,21.67310090002138,Female,20,33,Temporal,Demand
7,17,Low,4,1.533,21.67310090002138,Female,20,33,Performance,Demand
7,17,Low,2,2.058,21.67310090002138,Female,20,33,Physical,Demand
7,17,Low,3,1.205,21.67310090002138,Female,20,33,Pleasure,Affective
7,18,Medium,3,3.033,70.17163639998762,Female,20,101,Physical,Demand
7,18,Medium,4,2.017,70.17163639998762,Female,20,101,Frustration,Affective
7,18,Medium,3,1.291,70.17163639998762,Female,20,101,Temporal,Demand
7,18,Medium,3,3.776,70.17163639998762,Female,20,101,Effort,Demand
7,18,Medium,2,2.941,70.17163639998762,Female,20,101,Mental,Demand
7,18,Medium,4,2.429,70.17163639998762,Female,20,101,Performance,Demand
7,18,Medium,3,1.342,70.17163639998762,Female,20,101,Pleasure,Affective
8,1,Low,4,4.499,22.723956900066696,Male,20,33,Pleasure,Affective
8,1,Low,1,2.591,22.723956900066696,Male,20,33,Temporal,Demand
8,1,Low,1,3.177,22.723956900066696,Male,20,33,Effort,Demand
8,1,Low,1,1.835,22.723956900066696,Male,20,33,Physical,Demand
8,1,Low,5,1.252,22.723956900066696,Male,20,33,Performance,Demand
8,1,Low,1,1.495,22.723956900066696,Male,20,33,Mental,Demand
8,1,Low,1,1.395,22.723956900066696,Male,20,33,Frustration,Affective
8,2,Medium,2,3.25,66.54218680004124,Male,20,103,Physical,Demand
8,2,Medium,5,1.822,66.54218680004124,Male,20,103,Performance,Demand
8,2,Medium,2,2.683,66.54218680004124,Male,20,103,Temporal,Demand
8,2,Medium,5,1.645,66.54218680004124,Male,20,103,Pleasure,Affective
8,2,Medium,1,1.562,66.54218680004124,Male,20,103,Mental,Demand
8,2,Medium,1,1.483,66.54218680004124,Male,20,103,Frustration,Affective
8,2,Medium,2,3.015,66.54218680004124,Male,20,103,Effort,Demand
8,3,High,3,2.092,161.9404644999886,Male,20,276,Physical,Demand
8,3,High,5,2.786,161.9404644999886,Male,20,276,Pleasure,Affective
8,3,High,5,2.085,161.9404644999886,Male,20,276,Performance,Demand
8,3,High,1,2.426,161.9404644999886,Male,20,276,Mental,Demand
8,3,High,2,1.641,161.9404644999886,Male,20,276,Frustration,Affective
8,3,High,3,2.09,161.9404644999886,Male,20,276,Effort,Demand
8,3,High,3,2.29,161.9404644999886,Male,20,276,Temporal,Demand
8,4,Low,2,3.335,21.123256399994716,Male,20,33,Effort,Demand
8,4,Low,2,3.695,21.123256399994716,Male,20,33,Temporal,Demand
8,4,Low,1,1.553,21.123256399994716,Male,20,33,Mental,Demand
8,4,Low,4,1.709,21.123256399994716,Male,20,33,Pleasure,Affective
8,4,Low,1,1.313,21.123256399994716,Male,20,33,Frustration,Affective
8,4,Low,5,2.267,21.123256399994716,Male,20,33,Performance,Demand
8,4,Low,1,1.392,21.123256399994716,Male,20,33,Physical,Demand
8,5,High,5,2.833,175.93442720000166,Male,20,277,Performance,Demand
8,5,High,3,1.319,175.93442720000166,Male,20,277,Effort,Demand
8,5,High,5,2.166,175.93442720000166,Male,20,277,Pleasure,Affective
8,5,High,1,1.887,175.93442720000166,Male,20,277,Mental,Demand
8,5,High,1,5.903,175.93442720000166,Male,20,277,Frustration,Affective
8,5,High,3,4.406,175.93442720000166,Male,20,277,Temporal,Demand
8,5,High,3,1.22,175.93442720000166,Male,20,277,Physical,Demand
8,6,Medium,1,2.613,62.809218600043096,Male,20,102,Mental,Demand
8,6,Medium,3,1.341,62.809218600043096,Male,20,102,Temporal,Demand
8,6,Medium,5,1.648,62.809218600043096,Male,20,102,Performance,Demand
8,6,Medium,3,2.955,62.809218600043096,Male,20,102,Physical,Demand
8,6,Medium,2,2.631,62.809218600043096,Male,20,102,Frustration,Affective
8,6,Medium,3,5.3,62.809218600043096,Male,20,102,Pleasure,Affective
8,6,Medium,2,2.264,62.809218600043096,Male,20,102,Effort,Demand
8,7,High,4,2.75,157.47506279998925,Male,20,274,Effort,Demand
8,7,High,2,1.494,157.47506279998925,Male,20,274,Frustration,Affective
8,7,High,1,1.723,157.47506279998925,Male,20,274,Mental,Demand
8,7,High,3,2.442,157.47506279998925,Male,20,274,Pleasure,Affective
8,7,High,2,2.775,157.47506279998925,Male,20,274,Physical,Demand
8,7,High,4,2.398,157.47506279998925,Male,20,274,Temporal,Demand
8,7,High,5,2.824,157.47506279998925,Male,20,274,Performance,Demand
8,8,Medium,1,3.636,63.59305099991616,Male,20,105,Pleasure,Affective
8,8,Medium,5,5.867,63.59305099991616,Male,20,105,Frustration,Affective
8,8,Medium,1,2.9,63.59305099991616,Male,20,105,Mental,Demand
8,8,Medium,3,3.204,63.59305099991616,Male,20,105,Temporal,Demand
8,8,Medium,2,1.078,63.59305099991616,Male,20,105,Physical,Demand
8,8,Medium,4,1.715,63.59305099991616,Male,20,105,Performance,Demand
8,8,Medium,3,1.54,63.59305099991616,Male,20,105,Effort,Demand
8,9,Low,4,2.919,24.39000350004062,Male,20,33,Frustration,Affective
8,9,Low,5,4.103,24.39000350004062,Male,20,33,Performance,Demand
8,9,Low,2,1.795,24.39000350004062,Male,20,33,Effort,Demand
8,9,Low,1,1.638,24.39000350004062,Male,20,33,Mental,Demand
8,9,Low,3,1.752,24.39000350004062,Male,20,33,Pleasure,Affective
8,9,Low,4,1.714,24.39000350004062,Male,20,33,Temporal,Demand
8,9,Low,1,1.817,24.39000350004062,Male,20,33,Physical,Demand
8,10,Medium,2,5.002,53.66185229993425,Male,20,98,Pleasure,Affective
8,10,Medium,4,1.471,53.66185229993425,Male,20,98,Temporal,Demand
8,10,Medium,3,1.107,53.66185229993425,Male,20,98,Frustration,Affective
8,10,Medium,5,6.581,53.66185229993425,Male,20,98,Performance,Demand
8,10,Medium,3,1.014,53.66185229993425,Male,20,98,Physical,Demand
8,10,Medium,1,1.317,53.66185229993425,Male,20,98,Mental,Demand
8,10,Medium,3,1.699,53.66185229993425,Male,20,98,Effort,Demand
8,11,Low,2,2.98,18.65869109996129,Male,20,34,Physical,Demand
8,11,Low,1,1.526,18.65869109996129,Male,20,34,Mental,Demand
8,11,Low,3,2.601,18.65869109996129,Male,20,34,Temporal,Demand
8,11,Low,5,1.749,18.65869109996129,Male,20,34,Performance,Demand
8,11,Low,3,7.234,18.65869109996129,Male,20,34,Effort,Demand
8,11,Low,3,2.25,18.65869109996129,Male,20,34,Frustration,Affective
8,11,Low,3,1.848,18.65869109996129,Male,20,34,Pleasure,Affective
8,12,High,2,2.817,135.19970779994037,Male,20,278,Mental,Demand
8,12,High,2,4.3,135.19970779994037,Male,20,278,Pleasure,Affective
8,12,High,5,1.774,135.19970779994037,Male,20,278,Physical,Demand
8,12,High,5,3.359,135.19970779994037,Male,20,278,Effort,Demand
8,12,High,5,1.322,135.19970779994037,Male,20,278,Performance,Demand
8,12,High,5,1.44,135.19970779994037,Male,20,278,Temporal,Demand
8,12,High,3,1.295,135.19970779994037,Male,20,278,Frustration,Affective
8,13,Medium,2,5.48,59.65920739993453,Male,20,111,Pleasure,Affective
8,13,Medium,3,1.717,59.65920739993453,Male,20,111,Physical,Demand
8,13,Medium,4,1.281,59.65920739993453,Male,20,111,Temporal,Demand
8,13,Medium,5,3.702,59.65920739993453,Male,20,111,Performance,Demand
8,13,Medium,4,1.395,59.65920739993453,Male,20,111,Effort,Demand
8,13,Medium,1,1.314,59.65920739993453,Male,20,111,Mental,Demand
8,13,Medium,3,1.271,59.65920739993453,Male,20,111,Frustration,Affective
8,14,High,5,2.561,144.26425069989637,Male,20,274,Effort,Demand
8,14,High,1,2.37,144.26425069989637,Male,20,274,Pleasure,Affective
8,14,High,4,3.502,144.26425069989637,Male,20,274,Physical,Demand
8,14,High,4,1.045,144.26425069989637,Male,20,274,Frustration,Affective
8,14,High,4,0.93,144.26425069989637,Male,20,274,Temporal,Demand
8,14,High,2,1.342,144.26425069989637,Male,20,274,Mental,Demand
8,14,High,5,1.201,144.26425069989637,Male,20,274,Performance,Demand
8,15,Low,5,2.442,30.055220199981704,Male,20,59,Performance,Demand
8,15,Low,1,1.771,30.055220199981704,Male,20,59,Mental,Demand
8,15,Low,3,2.857,30.055220199981704,Male,20,59,Temporal,Demand
8,15,Low,1,1.099,30.055220199981704,Male,20,59,Pleasure,Affective
8,15,Low,3,1.114,30.055220199981704,Male,20,59,Frustration,Affective
8,15,Low,3,1.191,30.055220199981704,Male,20,59,Effort,Demand
8,15,Low,3,1.06,30.055220199981704,Male,20,59,Physical,Demand
8,16,High,5,2.141,129.20344750001095,Male,20,275,Effort,Demand
8,16,High,2,1.776,129.20344750001095,Male,20,275,Mental,Demand
8,16,High,5,3.413,129.20344750001095,Male,20,275,Performance,Demand
8,16,High,4,2.886,129.20344750001095,Male,20,275,Physical,Demand
8,16,High,1,1.297,129.20344750001095,Male,20,275,Pleasure,Affective
8,16,High,4,1.45,129.20344750001095,Male,20,275,Frustration,Affective
8,16,High,5,1.212,129.20344750001095,Male,20,275,Temporal,Demand
8,17,Low,1,3.663,21.557735500042327,Male,20,37,Mental,Demand
8,17,Low,3,3.163,21.557735500042327,Male,20,37,Effort,Demand
8,17,Low,1,1.725,21.557735500042327,Male,20,37,Physical,Demand
8,17,Low,5,1.02,21.557735500042327,Male,20,37,Pleasure,Affective
8,17,Low,5,2.552,21.557735500042327,Male,20,37,Performance,Demand
8,17,Low,4,4.333,21.557735500042327,Male,20,37,Temporal,Demand
8,17,Low,5,2.435,21.557735500042327,Male,20,37,Frustration,Affective
8,18,Medium,4,1.606,55.31164470000658,Male,20,105,Physical,Demand
8,18,Medium,4,1.506,55.31164470000658,Male,20,105,Effort,Demand
8,18,Medium,5,1.463,55.31164470000658,Male,20,105,Frustration,Affective
8,18,Medium,1,3.033,55.31164470000658,Male,20,105,Pleasure,Affective
8,18,Medium,5,1.161,55.31164470000658,Male,20,105,Performance,Demand
8,18,Medium,1,1.226,55.31164470000658,Male,20,105,Mental,Demand
8,18,Medium,5,1.193,55.31164470000658,Male,20,105,Temporal,Demand
9,1,Low,1,3.986,35.85228560003452,Female,20,35,Temporal,Demand
9,1,Low,1,1.7,35.85228560003452,Female,20,35,Physical,Demand
9,1,Low,1,1.176,35.85228560003452,Female,20,35,Frustration,Affective
9,1,Low,5,2.948,35.85228560003452,Female,20,35,Performance,Demand
9,1,Low,3,1.951,35.85228560003452,Female,20,35,Pleasure,Affective
9,1,Low,1,2.734,35.85228560003452,Female,20,35,Effort,Demand
9,1,Low,1,1.237,35.85228560003452,Female,20,35,Mental,Demand
9,2,Medium,2,4.112,99.8473493999918,Female,20,103,Frustration,Affective
9,2,Medium,3,1.656,99.8473493999918,Female,20,103,Pleasure,Affective
9,2,Medium,2,1.43,99.8473493999918,Female,20,103,Effort,Demand
9,2,Medium,2,0.886,99.8473493999918,Female,20,103,Mental,Demand
9,2,Medium,3,1.012,99.8473493999918,Female,20,103,Physical,Demand
9,2,Medium,2,0.916,99.8473493999918,Female,20,103,Temporal,Demand
9,2,Medium,5,2.28,99.8473493999918,Female,20,103,Performance,Demand
9,3,High,3,4.131,264.1603518000338,Female,20,272,Effort,Demand
9,3,High,4,3.512,264.1603518000338,Female,20,272,Frustration,Affective
9,3,High,4,2.525,264.1603518000338,Female,20,272,Physical,Demand
9,3,High,3,1.188,264.1603518000338,Female,20,272,Temporal,Demand
9,3,High,3,0.736,264.1603518000338,Female,20,272,Performance,Demand
9,3,High,2,1.108,264.1603518000338,Female,20,272,Mental,Demand
9,3,High,2,1.235,264.1603518000338,Female,20,272,Pleasure,Affective
9,4,Low,3,4.016,30.370680299995,Female,20,35,Performance,Demand
9,4,Low,2,1.267,30.370680299995,Female,20,35,Temporal,Demand
9,4,Low,2,1.732,30.370680299995,Female,20,35,Effort,Demand
9,4,Low,2,1.07,30.370680299995,Female,20,35,Pleasure,Affective
9,4,Low,2,0.78,30.370680299995,Female,20,35,Mental,Demand
9,4,Low,3,2.256,30.370680299995,Female,20,35,Frustration,Affective
9,4,Low,3,1.411,30.370680299995,Female,20,35,Physical,Demand
9,5,High,1,3.884,251.44780930003617,Female,20,272,Pleasure,Affective
9,5,High,4,2.751,251.44780930003617,Female,20,272,Performance,Demand
9,5,High,2,1.463,251.44780930003617,Female,20,272,Mental,Demand
9,5,High,3,1.323,251.44780930003617,Female,20,272,Temporal,Demand
9,5,High,4,1.403,251.44780930003617,Female,20,272,Physical,Demand
9,5,High,4,1.972,251.44780930003617,Female,20,272,Effort,Demand
9,5,High,4,1.998,251.44780930003617,Female,20,272,Frustration,Affective
9,6,Medium,4,4.838,97.69846699998016,Female,20,104,Frustration,Affective
9,6,Medium,2,1.385,97.69846699998016,Female,20,104,Mental,Demand
9,6,Medium,4,1.837,97.69846699998016,Female,20,104,Effort,Demand
9,6,Medium,4,1.776,97.69846699998016,Female,20,104,Performance,Demand
9,6,Medium,2,1.575,97.69846699998016,Female,20,104,Pleasure,Affective
9,6,Medium,3,0.974,97.69846699998016,Female,20,104,Temporal,Demand
9,6,Medium,2,1.692,97.69846699998016,Female,20,104,Physical,Demand
9,7,High,5,6.208,271.0247484999709,Female,20,271,Frustration,Affective
9,7,High,4,1.101,271.0247484999709,Female,20,271,Physical,Demand
9,7,High,4,1.94,271.0247484999709,Female,20,271,Mental,Demand
9,7,High,4,1.057,271.0247484999709,Female,20,271,Performance,Demand
9,7,High,2,1.654,271.0247484999709,Female,20,271,Temporal,Demand
9,7,High,4,1.82,271.0247484999709,Female,20,271,Effort,Demand
9,7,High,2,1.291,271.0247484999709,Female,20,271,Pleasure,Affective
9,8,Medium,1,3.425,121.7080447000335,Female,20,101,Temporal,Demand
9,8,Medium,4,2.008,121.7080447000335,Female,20,101,Physical,Demand
9,8,Medium,5,1.57,121.7080447000335,Female,20,101,Frustration,Affective
9,8,Medium,4,0.946,121.7080447000335,Female,20,101,Mental,Demand
9,8,Medium,3,1.381,121.7080447000335,Female,20,101,Effort,Demand
9,8,Medium,4,1.394,121.7080447000335,Female,20,101,Performance,Demand
9,8,Medium,1,1.688,121.7080447000335,Female,20,101,Pleasure,Affective
9,9,Low,3,2.22,46.26732350001112,Female,20,31,Mental,Demand
9,9,Low,3,0.976,46.26732350001112,Female,20,31,Temporal,Demand
9,9,Low,3,1.424,46.26732350001112,Female,20,31,Effort,Demand
9,9,Low,4,1.247,46.26732350001112,Female,20,31,Frustration,Affective
9,9,Low,4,1.092,46.26732350001112,Female,20,31,Performance,Demand
9,9,Low,2,1.044,46.26732350001112,Female,20,31,Pleasure,Affective
9,9,Low,3,1.372,46.26732350001112,Female,20,31,Physical,Demand
9,10,Medium,1,5.646,112.56106779997936,Female,20,102,Pleasure,Affective
9,10,Medium,1,1.804,112.56106779997936,Female,20,102,Temporal,Demand
9,10,Medium,5,1.248,112.56106779997936,Female,20,102,Frustration,Affective
9,10,Medium,4,1.192,112.56106779997936,Female,20,102,Mental,Demand
9,10,Medium,3,0.987,112.56106779997936,Female,20,102,Physical,Demand
9,10,Medium,5,1.726,112.56106779997936,Female,20,102,Performance,Demand
9,10,Medium,3,1.134,112.56106779997936,Female,20,102,Effort,Demand
9,11,Low,5,5.772,37.25179619999835,Female,20,32,Frustration,Affective
9,11,Low,1,1.678,37.25179619999835,Female,20,32,Temporal,Demand
9,11,Low,4,1.26,37.25179619999835,Female,20,32,Physical,Demand
9,11,Low,1,1.327,37.25179619999835,Female,20,32,Pleasure,Affective
9,11,Low,4,2.01,37.25179619999835,Female,20,32,Mental,Demand
9,11,Low,2,1.764,37.25179619999835,Female,20,32,Effort,Demand
9,11,Low,5,2.276,37.25179619999835,Female,20,32,Performance,Demand
9,12,High,3,3.583,274.7909324999782,Female,20,272,Mental,Demand
9,12,High,4,1.436,274.7909324999782,Female,20,272,Frustration,Affective
9,12,High,5,1.251,274.7909324999782,Female,20,272,Performance,Demand
9,12,High,1,1.147,274.7909324999782,Female,20,272,Temporal,Demand
9,12,High,4,1.577,274.7909324999782,Female,20,272,Physical,Demand
9,12,High,1,2.313,274.7909324999782,Female,20,272,Pleasure,Affective
9,12,High,4,1.622,274.7909324999782,Female,20,272,Effort,Demand
9,13,Medium,4,1.483,108.01256770000327,Female,20,101,Mental,Demand
9,13,Medium,5,1.239,108.01256770000327,Female,20,101,Frustration,Affective
9,13,Medium,3,1.636,108.01256770000327,Female,20,101,Effort,Demand
9,13,Medium,3,1.375,108.01256770000327,Female,20,101,Physical,Demand
9,13,Medium,2,1.08,108.01256770000327,Female,20,101,Temporal,Demand
9,13,Medium,2,3.061,108.01256770000327,Female,20,101,Pleasure,Affective
9,13,Medium,5,1.629,108.01256770000327,Female,20,101,Performance,Demand
9,14,High,3,4.494,284.45365009998204,Female,20,272,Frustration,Affective
9,14,High,3,0.809,284.45365009998204,Female,20,272,Physical,Demand
9,14,High,2,0.893,284.45365009998204,Female,20,272,Temporal,Demand
9,14,High,2,1.541,284.45365009998204,Female,20,272,Effort,Demand
9,14,High,2,1.025,284.45365009998204,Female,20,272,Pleasure,Affective
9,14,High,5,1.142,284.45365009998204,Female,20,272,Performance,Demand
9,14,High,3,1.522,284.45365009998204,Female,20,272,Mental,Demand
9,15,Low,3,2.921,33.95300490001682,Female,20,32,Mental,Demand
9,15,Low,3,1.347,33.95300490001682,Female,20,32,Frustration,Affective
9,15,Low,4,1.04,33.95300490001682,Female,20,32,Performance,Demand
9,15,Low,3,1.546,33.95300490001682,Female,20,32,Physical,Demand
9,15,Low,3,1.395,33.95300490001682,Female,20,32,Effort,Demand
9,15,Low,2,1.048,33.95300490001682,Female,20,32,Pleasure,Affective
9,15,Low,2,1.173,33.95300490001682,Female,20,32,Temporal,Demand
9,16,High,4,2.649,256.0310576999909,Female,20,275,Temporal,Demand
9,16,High,4,0.992,256.0310576999909,Female,20,275,Mental,Demand
9,16,High,1,1.361,256.0310576999909,Female,20,275,Pleasure,Affective
9,16,High,4,1.147,256.0310576999909,Female,20,275,Physical,Demand
9,16,High,5,1.192,256.0310576999909,Female,20,275,Frustration,Affective
9,16,High,5,1.117,256.0310576999909,Female,20,275,Performance,Demand
9,16,High,4,1.389,256.0310576999909,Female,20,275,Effort,Demand
9,17,Low,4,5.435,33.80331589997513,Female,20,32,Physical,Demand
9,17,Low,5,0.935,33.80331589997513,Female,20,32,Performance,Demand
9,17,Low,4,1.207,33.80331589997513,Female,20,32,Mental,Demand
9,17,Low,2,0.998,33.80331589997513,Female,20,32,Effort,Demand
9,17,Low,3,1.185,33.80331589997513,Female,20,32,Temporal,Demand
9,17,Low,4,1.126,33.80331589997513,Female,20,32,Frustration,Affective
9,17,Low,2,0.958,33.80331589997513,Female,20,32,Pleasure,Affective
9,18,Medium,3,3.617,105.98047120001866,Female,20,102,Temporal,Demand
9,18,Medium,3,0.94,105.98047120001866,Female,20,102,Pleasure,Affective
9,18,Medium,3,0.656,105.98047120001866,Female,20,102,Physical,Demand
9,18,Medium,4,0.982,105.98047120001866,Female,20,102,Frustration,Affective
9,18,Medium,3,0.79,105.98047120001866,Female,20,102,Mental,Demand
9,18,Medium,4,1.244,105.98047120001866,Female,20,102,Performance,Demand
9,18,Medium,3,0.937,105.98047120001866,Female,20,102,Effort,Demand
10,1,Low,2,4.458,28.770044500008225,Male,17,32,Physical,Demand
10,1,Low,2,2.073,28.770044500008225,Male,17,32,Temporal,Demand
10,1,Low,4,2.66,28.770044500008225,Male,17,32,Performance,Demand
10,1,Low,1,2.589,28.770044500008225,Male,17,32,Effort,Demand
10,1,Low,2,3.506,28.770044500008225,Male,17,32,Pleasure,Affective
10,1,Low,4,2.066,28.770044500008225,Male,17,32,Frustration,Affective
10,1,Low,2,1.573,28.770044500008225,Male,17,32,Mental,Demand
10,2,Medium,1,4.564,82.57043289998546,Male,17,104,Frustration,Affective
10,2,Medium,1,3.578,82.57043289998546,Male,17,104,Physical,Demand
10,2,Medium,3,7.612,82.57043289998546,Male,17,104,Performance,Demand
10,2,Medium,4,2.142,82.57043289998546,Male,17,104,Effort,Demand
10,2,Medium,5,2.055,82.57043289998546,Male,17,104,Temporal,Demand
10,2,Medium,1,1.506,82.57043289998546,Male,17,104,Pleasure,Affective
10,2,Medium,2,1.566,82.57043289998546,Male,17,104,Mental,Demand
10,3,High,1,3.528,183.7673375000013,Male,17,274,Pleasure,Affective
10,3,High,1,2.128,183.7673375000013,Male,17,274,Mental,Demand
10,3,High,4,2.557,183.7673375000013,Male,17,274,Physical,Demand
10,3,High,5,1.737,183.7673375000013,Male,17,274,Performance,Demand
10,3,High,5,2.258,183.7673375000013,Male,17,274,Temporal,Demand
10,3,High,5,1.654,183.7673375000013,Male,17,274,Frustration,Affective
10,3,High,5,2.722,183.7673375000013,Male,17,274,Effort,Demand
10,4,Low,2,4.257,29.237920400104485,Male,17,34,Effort,Demand
10,4,Low,2,2.29,29.237920400104485,Male,17,34,Pleasure,Affective
10,4,Low,4,2.032,29.237920400104485,Male,17,34,Physical,Demand
10,4,Low,2,1.613,29.237920400104485,Male,17,34,Mental,Demand
10,4,Low,1,1.625,29.237920400104485,Male,17,34,Temporal,Demand
10,4,Low,5,1.296,29.237920400104485,Male,17,34,Performance,Demand
10,4,Low,2,1.381,29.237920400104485,Male,17,34,Frustration,Affective
10,5,High,5,4.226,225.6344047000166,Male,17,273,Frustration,Affective
10,5,High,1,2.157,225.6344047000166,Male,17,273,Mental,Demand
10,5,High,4,1.375,225.6344047000166,Male,17,273,Temporal,Demand
10,5,High,2,1.094,225.6344047000166,Male,17,273,Physical,Demand
10,5,High,4,1.785,225.6344047000166,Male,17,273,Effort,Demand
10,5,High,3,3.468,225.6344047000166,Male,17,273,Performance,Demand
10,5,High,1,3.087,225.6344047000166,Male,17,273,Pleasure,Affective
10,6,Medium,2,4.278,76.55455150001217,Male,17,110,Physical,Demand
10,6,Medium,1,1.761,76.55455150001217,Male,17,110,Mental,Demand
10,6,Medium,5,1.352,76.55455150001217,Male,17,110,Performance,Demand
10,6,Medium,2,1.367,76.55455150001217,Male,17,110,Frustration,Affective
10,6,Medium,5,1.804,76.55455150001217,Male,17,110,Temporal,Demand
10,6,Medium,4,1.934,76.55455150001217,Male,17,110,Effort,Demand
10,6,Medium,2,1.567,76.55455150001217,Male,17,110,Pleasure,Affective
10,7,High,5,2.746,186.2483664000174,Male,17,274,Temporal,Demand
10,7,High,1,2.879,186.2483664000174,Male,17,274,Mental,Demand
10,7,High,3,1.218,186.2483664000174,Male,17,274,Performance,Demand
10,7,High,4,6.536,186.2483664000174,Male,17,274,Effort,Demand
10,7,High,1,1.454,186.2483664000174,Male,17,274,Pleasure,Affective
10,7,High,2,1.605,186.2483664000174,Male,17,274,Frustration,Affective
10,7,High,4,1.588,186.2483664000174,Male,17,274,Physical,Demand
10,8,Medium,5,6.61,77.83699869993143,Male,17,102,Performance,Demand
10,8,Medium,4,4.49,77.83699869993143,Male,17,102,Effort,Demand
10,8,Medium,5,2.738,77.83699869993143,Male,17,102,Frustration,Affective
10,8,Medium,4,3.883,77.83699869993143,Male,17,102,Temporal,Demand
10,8,Medium,1,1.289,77.83699869993143,Male,17,102,Pleasure,Affective
10,8,Medium,4,2.916,77.83699869993143,Male,17,102,Physical,Demand
10,8,Medium,1,1.336,77.83699869993143,Male,17,102,Mental,Demand
10,9,Low,2,4.999,24.855309100006707,Male,17,34,Physical,Demand
10,9,Low,2,2.656,24.855309100006707,Male,17,34,Effort,Demand
10,9,Low,3,2.611,24.855309100006707,Male,17,34,Mental,Demand
10,9,Low,3,1.683,24.855309100006707,Male,17,34,Frustration,Affective
10,9,Low,3,10.415,24.855309100006707,Male,17,34,Pleasure,Affective
10,9,Low,2,3.783,24.855309100006707,Male,17,34,Temporal,Demand
10,9,Low,3,8.695,24.855309100006707,Male,17,34,Performance,Demand
10,10,Medium,4,4.915,83.14992450003047,Male,17,104,Mental,Demand
10,10,Medium,3,2.185,83.14992450003047,Male,17,104,Frustration,Affective
10,10,Medium,2,1.649,83.14992450003047,Male,17,104,Temporal,Demand
10,10,Medium,3,1.867,83.14992450003047,Male,17,104,Pleasure,Affective
10,10,Medium,4,1.878,83.14992450003047,Male,17,104,Performance,Demand
10,10,Medium,2,2.013,83.14992450003047,Male,17,104,Physical,Demand
10,10,Medium,3,3.804,83.14992450003047,Male,17,104,Effort,Demand
10,11,Low,1,6.21,27.671101700048897,Male,17,31,Effort,Demand
10,11,Low,3,1.865,27.671101700048897,Male,17,31,Physical,Demand
10,11,Low,2,1.186,27.671101700048897,Male,17,31,Mental,Demand
10,11,Low,4,1.096,27.671101700048897,Male,17,31,Pleasure,Affective
10,11,Low,4,1.216,27.671101700048897,Male,17,31,Performance,Demand
10,11,Low,2,2.653,27.671101700048897,Male,17,31,Frustration,Affective
10,11,Low,3,1.411,27.671101700048897,Male,17,31,Temporal,Demand
10,12,High,4,2.578,190.79678269999567,Male,17,274,Physical,Demand
10,12,High,5,2.994,190.79678269999567,Male,17,274,Frustration,Affective
10,12,High,3,2.346,190.79678269999567,Male,17,274,Performance,Demand
10,12,High,5,2.352,190.79678269999567,Male,17,274,Temporal,Demand
10,12,High,2,1.329,190.79678269999567,Male,17,274,Mental,Demand
10,12,High,4,3.853,190.79678269999567,Male,17,274,Effort,Demand
10,12,High,1,2.388,190.79678269999567,Male,17,274,Pleasure,Affective
10,13,Medium,5,2.862,60.059625800000504,Male,17,105,Performance,Demand
10,13,Medium,5,2.814,60.059625800000504,Male,17,105,Physical,Demand
10,13,Medium,5,2.84,60.059625800000504,Male,17,105,Effort,Demand
10,13,Medium,5,2.737,60.059625800000504,Male,17,105,Frustration,Affective
10,13,Medium,5,1.96,60.059625800000504,Male,17,105,Temporal,Demand
10,13,Medium,1,2.353,60.059625800000504,Male,17,105,Mental,Demand
10,13,Medium,1,1.84,60.059625800000504,Male,17,105,Pleasure,Affective
10,14,High,4,4.067,188.29804409993812,Male,17,273,Frustration,Affective
10,14,High,5,1.452,188.29804409993812,Male,17,273,Temporal,Demand
10,14,High,1,1.084,188.29804409993812,Male,17,273,Pleasure,Affective
10,14,High,4,1.139,188.29804409993812,Male,17,273,Performance,Demand
10,14,High,2,1.777,188.29804409993812,Male,17,273,Mental,Demand
10,14,High,4,1.601,188.29804409993812,Male,17,273,Effort,Demand
10,14,High,1,1.477,188.29804409993812,Male,17,273,Physical,Demand
10,15,Low,1,5.316,29.736832799972035,Male,17,37,Mental,Demand
10,15,Low,3,2.239,29.736832799972035,Male,17,37,Temporal,Demand
10,15,Low,3,1.454,29.736832799972035,Male,17,37,Performance,Demand
10,15,Low,2,2.942,29.736832799972035,Male,17,37,Effort,Demand
10,15,Low,4,1.789,29.736832799972035,Male,17,37,Physical,Demand
10,15,Low,2,2.616,29.736832799972035,Male,17,37,Frustration,Affective
10,15,Low,2,1.598,29.736832799972035,Male,17,37,Pleasure,Affective
10,16,High,2,3.623,214.3385982000036,Male,17,275,Performance,Demand
10,16,High,4,3.597,214.3385982000036,Male,17,275,Effort,Demand
10,16,High,1,1.814,214.3385982000036,Male,17,275,Mental,Demand
10,16,High,4,3.398,214.3385982000036,Male,17,275,Temporal,Demand
10,16,High,2,4.463,214.3385982000036,Male,17,275,Physical,Demand
10,16,High,3,1.674,214.3385982000036,Male,17,275,Frustration,Affective
10,16,High,1,2.359,214.3385982000036,Male,17,275,Pleasure,Affective
10,17,Low,4,2.066,24.522237499943003,Male,17,34,Pleasure,Affective
10,17,Low,2,2.485,24.522237499943003,Male,17,34,Frustration,Affective
10,17,Low,3,1.893,24.522237499943003,Male,17,34,Mental,Demand
10,17,Low,1,1.883,24.522237499943003,Male,17,34,Effort,Demand
10,17,Low,4,2.468,24.522237499943003,Male,17,34,Performance,Demand
10,17,Low,4,4.522,24.522237499943003,Male,17,34,Physical,Demand
10,17,Low,1,1.752,24.522237499943003,Male,17,34,Temporal,Demand
10,18,Medium,1,4.107,61.20940639998298,Male,17,105,Mental,Demand
10,18,Medium,4,3.072,61.20940639998298,Male,17,105,Effort,Demand
10,18,Medium,4,4.551,61.20940639998298,Male,17,105,Performance,Demand
10,18,Medium,5,1.775,61.20940639998298,Male,17,105,Temporal,Demand
10,18,Medium,4,1.542,61.20940639998298,Male,17,105,Physical,Demand
10,18,Medium,5,2.267,61.20940639998298,Male,17,105,Frustration,Affective
10,18,Medium,1,1.793,61.20940639998298,Male,17,105,Pleasure,Affective
11,1,Low,2,2.016,22.407201099966187,Female,20,32,Physical,Demand
11,1,Low,1,1.543,22.407201099966187,Female,20,32,Frustration,Affective
11,1,Low,2,1.567,22.407201099966187,Female,20,32,Effort,Demand
11,1,Low,5,3.13,22.407201099966187,Female,20,32,Performance,Demand
11,1,Low,3,1.545,22.407201099966187,Female,20,32,Pleasure,Affective
11,1,Low,1,1.643,22.407201099966187,Female,20,32,Mental,Demand
11,1,Low,2,1.693,22.407201099966187,Female,20,32,Temporal,Demand
11,2,Medium,5,2.528,84.78505519998726,Female,20,114,Performance,Demand
11,2,Medium,3,1.608,84.78505519998726,Female,20,114,Frustration,Affective
11,2,Medium,1,5.105,84.78505519998726,Female,20,114,Temporal,Demand
11,2,Medium,2,2.721,84.78505519998726,Female,20,114,Physical,Demand
11,2,Medium,2,1.226,84.78505519998726,Female,20,114,Mental,Demand
11,2,Medium,2,1.504,84.78505519998726,Female,20,114,Effort,Demand
11,2,Medium,3,1.481,84.78505519998726,Female,20,114,Pleasure,Affective
11,3,High,3,1.829,182.0868014000007,Female,20,273,Physical,Demand
11,3,High,3,2.288,182.0868014000007,Female,20,273,Temporal,Demand
11,3,High,2,1.748,182.0868014000007,Female,20,273,Pleasure,Affective
11,3,High,4,1.5,182.0868014000007,Female,20,273,Frustration,Affective
11,3,High,3,3.384,182.0868014000007,Female,20,273,Effort,Demand
11,3,High,4,3.493,182.0868014000007,Female,20,273,Performance,Demand
11,3,High,2,7.94,182.0868014000007,Female,20,273,Mental,Demand
11,4,Low,3,5.182,24.824407399981283,Female,20,32,Pleasure,Affective
11,4,Low,5,2.143,24.824407399981283,Female,20,32,Performance,Demand
11,4,Low,2,1.736,24.824407399981283,Female,20,32,Temporal,Demand
11,4,Low,3,2.575,24.824407399981283,Female,20,32,Effort,Demand
11,4,Low,2,1.327,24.824407399981283,Female,20,32,Physical,Demand
11,4,Low,4,1.819,24.824407399981283,Female,20,32,Frustration,Affective
11,4,Low,1,1.727,24.824407399981283,Female,20,32,Mental,Demand
11,5,High,2,15.164,162.3765127000515,Female,20,273,Pleasure,Affective
11,5,High,5,3.537,162.3765127000515,Female,20,273,Frustration,Affective
11,5,High,4,2.156,162.3765127000515,Female,20,273,Temporal,Demand
11,5,High,3,1.912,162.3765127000515,Female,20,273,Physical,Demand
11,5,High,4,3.227,162.3765127000515,Female,20,273,Effort,Demand
11,5,High,3,2.813,162.3765127000515,Female,20,273,Mental,Demand
11,5,High,3,4.744,162.3765127000515,Female,20,273,Performance,Demand
11,6,Medium,4,4.378,75.57418120000511,Female,20,102,Performance,Demand
11,6,Medium,4,2.176,75.57418120000511,Female,20,102,Frustration,Affective
11,6,Medium,2,1.473,75.57418120000511,Female,20,102,Mental,Demand
11,6,Medium,2,1.946,75.57418120000511,Female,20,102,Pleasure,Affective
11,6,Medium,3,2.339,75.57418120000511,Female,20,102,Effort,Demand
11,6,Medium,3,2.995,75.57418120000511,Female,20,102,Physical,Demand
11,6,Medium,2,1.905,75.57418120000511,Female,20,102,Temporal,Demand
11,7,High,3,2.345,197.19896430004155,Female,20,274,Effort,Demand
11,7,High,3,1.553,197.19896430004155,Female,20,274,Physical,Demand
11,7,High,3,5.904,197.19896430004155,Female,20,274,Performance,Demand
11,7,High,1,2.857,197.19896430004155,Female,20,274,Pleasure,Affective
11,7,High,1,2.787,197.19896430004155,Female,20,274,Mental,Demand
11,7,High,3,3.519,197.19896430004155,Female,20,274,Temporal,Demand
11,7,High,4,6.219,197.19896430004155,Female,20,274,Frustration,Affective
11,8,Medium,3,7.11,80.75406489998568,Female,20,102,Effort,Demand
11,8,Medium,4,1.105,80.75406489998568,Female,20,102,Frustration,Affective
11,8,Medium,3,0.864,80.75406489998568,Female,20,102,Physical,Demand
11,8,Medium,3,2.798,80.75406489998568,Female,20,102,Performance,Demand
11,8,Medium,2,1.337,80.75406489998568,Female,20,102,Pleasure,Affective
11,8,Medium,2,1.907,80.75406489998568,Female,20,102,Temporal,Demand
11,8,Medium,3,1.475,80.75406489998568,Female,20,102,Mental,Demand
11,9,Low,4,4.529,25.838841299992055,Female,20,32,Frustration,Affective
11,9,Low,3,3.106,25.838841299992055,Female,20,32,Performance,Demand
11,9,Low,2,1.721,25.838841299992055,Female,20,32,Pleasure,Affective
11,9,Low,2,1.833,25.838841299992055,Female,20,32,Mental,Demand
11,9,Low,2,2.256,25.838841299992055,Female,20,32,Physical,Demand
11,9,Low,3,1.818,25.838841299992055,Female,20,32,Effort,Demand
11,9,Low,2,1.893,25.838841299992055,Female,20,32,Temporal,Demand
11,10,Medium,3,2.814,82.18616919999477,Female,20,102,Frustration,Affective
11,10,Medium,3,1.052,82.18616919999477,Female,20,102,Mental,Demand
11,10,Medium,3,5.044,82.18616919999477,Female,20,102,Performance,Demand
11,10,Medium,3,2.708,82.18616919999477,Female,20,102,Effort,Demand
11,10,Medium,3,2.992,82.18616919999477,Female,20,102,Physical,Demand
11,10,Medium,3,1.953,82.18616919999477,Female,20,102,Pleasure,Affective
11,10,Medium,3,2.353,82.18616919999477,Female,20,102,Temporal,Demand
11,11,Low,2,1.929,21.273622899956536,Female,20,34,Frustration,Affective
11,11,Low,4,1.92,21.273622899956536,Female,20,34,Performance,Demand
11,11,Low,2,1.684,21.273622899956536,Female,20,34,Physical,Demand
11,11,Low,4,1.536,21.273622899956536,Female,20,34,Pleasure,Affective
11,11,Low,2,1.943,21.273622899956536,Female,20,34,Mental,Demand
11,11,Low,3,1.454,21.273622899956536,Female,20,34,Effort,Demand
11,11,Low,4,1.787,21.273622899956536,Female,20,34,Temporal,Demand
11,12,High,4,3.894,168.25967160001164,Female,20,272,Effort,Demand
11,12,High,3,4.911,168.25967160001164,Female,20,272,Temporal,Demand
11,12,High,3,4.273,168.25967160001164,Female,20,272,Performance,Demand
11,12,High,4,3.494,168.25967160001164,Female,20,272,Physical,Demand
11,12,High,3,1.661,168.25967160001164,Female,20,272,Mental,Demand
11,12,High,2,2.382,168.25967160001164,Female,20,272,Pleasure,Affective
11,12,High,4,7.237,168.25967160001164,Female,20,272,Frustration,Affective
11,13,Medium,3,2.031,85.4691856999998,Female,20,102,Physical,Demand
11,13,Medium,2,2.688,85.4691856999998,Female,20,102,Pleasure,Affective
11,13,Medium,2,0.915,85.4691856999998,Female,20,102,Mental,Demand
11,13,Medium,4,2.071,85.4691856999998,Female,20,102,Frustration,Affective
11,13,Medium,3,1.449,85.4691856999998,Female,20,102,Effort,Demand
11,13,Medium,1,2.826,85.4691856999998,Female,20,102,Temporal,Demand
11,13,Medium,3,2.304,85.4691856999998,Female,20,102,Performance,Demand
11,14,High,2,2.376,239.06864790001416,Female,20,272,Temporal,Demand
11,14,High,1,1.873,239.06864790001416,Female,20,272,Pleasure,Affective
11,14,High,3,2.92,239.06864790001416,Female,20,272,Effort,Demand
11,14,High,5,6.643,239.06864790001416,Female,20,272,Frustration,Affective
11,14,High,3,2.155,239.06864790001416,Female,20,272,Performance,Demand
11,14,High,4,2.527,239.06864790001416,Female,20,272,Mental,Demand
11,14,High,4,4.907,239.06864790001416,Female,20,272,Physical,Demand
11,15,Low,4,6.531,26.837771799997427,Female,20,33,Performance,Demand
11,15,Low,2,1.343,26.837771799997427,Female,20,33,Pleasure,Affective
11,15,Low,2,1.657,26.837771799997427,Female,20,33,Effort,Demand
11,15,Low,2,1.391,26.837771799997427,Female,20,33,Mental,Demand
11,15,Low,3,1.897,26.837771799997427,Female,20,33,Frustration,Affective
11,15,Low,2,1.538,26.837771799997427,Female,20,33,Physical,Demand
11,15,Low,2,1.574,26.837771799997427,Female,20,33,Temporal,Demand
11,16,High,1,5.929,254.58013940003,Female,20,271,Temporal,Demand
11,16,High,4,2.059,254.58013940003,Female,20,271,Mental,Demand
11,16,High,3,2.54,254.58013940003,Female,20,271,Performance,Demand
11,16,High,4,2.652,254.58013940003,Female,20,271,Effort,Demand
11,16,High,5,2.387,254.58013940003,Female,20,271,Frustration,Affective
11,16,High,4,2.243,254.58013940003,Female,20,271,Physical,Demand
11,16,High,1,1.67,254.58013940003,Female,20,271,Pleasure,Affective
11,17,Low,3,14.824,29.438916699960828,Female,20,32,Mental,Demand
11,17,Low,3,1.868,29.438916699960828,Female,20,32,Effort,Demand
11,17,Low,2,2.753,29.438916699960828,Female,20,32,Pleasure,Affective
11,17,Low,2,4.841,29.438916699960828,Female,20,32,Temporal,Demand
11,17,Low,3,1.274,29.438916699960828,Female,20,32,Physical,Demand
11,17,Low,4,2.402,29.438916699960828,Female,20,32,Frustration,Affective
11,17,Low,4,1.307,29.438916699960828,Female,20,32,Performance,Demand
11,18,Medium,4,3.194,81.78827270003967,Female,20,103,Performance,Demand
11,18,Medium,3,2.077,81.78827270003967,Female,20,103,Temporal,Demand
11,18,Medium,4,5.95,81.78827270003967,Female,20,103,Effort,Demand
11,18,Medium,3,1.538,81.78827270003967,Female,20,103,Mental,Demand
11,18,Medium,3,1.288,81.78827270003967,Female,20,103,Physical,Demand
11,18,Medium,3,1.418,81.78827270003967,Female,20,103,Pleasure,Affective
11,18,Medium,2,3.549,81.78827270003967,Female,20,103,Frustration,Affective
12,1,Low,3,2.932,15.659742800053207,Male,23,35,Pleasure,Affective
12,1,Low,4,2.248,15.659742800053207,Male,23,35,Performance,Demand
12,1,Low,3,2.133,15.659742800053207,Male,23,35,Physical,Demand
12,1,Low,3,1.296,15.659742800053207,Male,23,35,Frustration,Affective
12,1,Low,2,1.736,15.659742800053207,Male,23,35,Mental,Demand
12,1,Low,2,1.258,15.659742800053207,Male,23,35,Temporal,Demand
12,1,Low,4,2.322,15.659742800053207,Male,23,35,Effort,Demand
12,2,Medium,3,1.907,48.1469236999983,Male,23,104,Mental,Demand
12,2,Medium,2,5.554,48.1469236999983,Male,23,104,Pleasure,Affective
12,2,Medium,3,1.781,48.1469236999983,Male,23,104,Effort,Demand
12,2,Medium,3,2.511,48.1469236999983,Male,23,104,Performance,Demand
12,2,Medium,2,3.807,48.1469236999983,Male,23,104,Physical,Demand
12,2,Medium,3,1.394,48.1469236999983,Male,23,104,Temporal,Demand
12,2,Medium,3,1.488,48.1469236999983,Male,23,104,Frustration,Affective
12,3,High,4,3.088,131.43596480006818,Male,23,275,Mental,Demand
12,3,High,3,1.216,131.43596480006818,Male,23,275,Physical,Demand
12,3,High,4,1.586,131.43596480006818,Male,23,275,Frustration,Affective
12,3,High,3,4.234,131.43596480006818,Male,23,275,Effort,Demand
12,3,High,4,1.813,131.43596480006818,Male,23,275,Temporal,Demand
12,3,High,2,5.404,131.43596480006818,Male,23,275,Performance,Demand
12,3,High,3,3.628,131.43596480006818,Male,23,275,Pleasure,Affective
12,4,Low,1,5.26,16.35715729999356,Male,23,34,Effort,Demand
12,4,Low,3,3.506,16.35715729999356,Male,23,34,Pleasure,Affective
12,4,Low,2,1.549,16.35715729999356,Male,23,34,Physical,Demand
12,4,Low,4,1.82,16.35715729999356,Male,23,34,Performance,Demand
12,4,Low,2,1.774,16.35715729999356,Male,23,34,Frustration,Affective
12,4,Low,1,1.75,16.35715729999356,Male,23,34,Temporal,Demand
12,4,Low,1,1.435,16.35715729999356,Male,23,34,Mental,Demand
12,5,High,2,3.6,124.3043359000003,Male,23,275,Pleasure,Affective
12,5,High,3,1.808,124.3043359000003,Male,23,275,Mental,Demand
12,5,High,3,2.896,124.3043359000003,Male,23,275,Performance,Demand
12,5,High,3,1.399,124.3043359000003,Male,23,275,Physical,Demand
12,5,High,4,2.985,124.3043359000003,Male,23,275,Temporal,Demand
12,5,High,3,1.462,124.3043359000003,Male,23,275,Frustration,Affective
12,5,High,4,2.045,124.3043359000003,Male,23,275,Effort,Demand
12,6,Medium,2,5.146,45.11502899997867,Male,23,102,Physical,Demand
12,6,Medium,3,2.455,45.11502899997867,Male,23,102,Performance,Demand
12,6,Medium,3,1.356,45.11502899997867,Male,23,102,Effort,Demand
12,6,Medium,3,2.089,45.11502899997867,Male,23,102,Mental,Demand
12,6,Medium,2,2.475,45.11502899997867,Male,23,102,Frustration,Affective
12,6,Medium,3,1.467,45.11502899997867,Male,23,102,Temporal,Demand
12,6,Medium,2,3.104,45.11502899997867,Male,23,102,Pleasure,Affective
12,7,High,4,3.462,128.904002700001,Male,23,273,Effort,Demand
12,7,High,3,1.584,128.904002700001,Male,23,273,Physical,Demand
12,7,High,4,1.483,128.904002700001,Male,23,273,Frustration,Affective
12,7,High,3,0.714,128.904002700001,Male,23,273,Temporal,Demand
12,7,High,1,3.011,128.904002700001,Male,23,273,Pleasure,Affective
12,7,High,2,1.873,128.904002700001,Male,23,273,Mental,Demand
12,7,High,2,1.706,128.904002700001,Male,23,273,Performance,Demand
12,8,Medium,2,2.472,63.241473100031726,Male,23,104,Frustration,Affective
12,8,Medium,1,1.685,63.241473100031726,Male,23,104,Pleasure,Affective
12,8,Medium,3,1.422,63.241473100031726,Male,23,104,Performance,Demand
12,8,Medium,2,1.358,63.241473100031726,Male,23,104,Mental,Demand
12,8,Medium,2,1.266,63.241473100031726,Male,23,104,Effort,Demand
12,8,Medium,2,1.222,63.241473100031726,Male,23,104,Physical,Demand
12,8,Medium,3,1.282,63.241473100031726,Male,23,104,Temporal,Demand
12,9,Low,2,8.325,19.440545800025575,Male,23,37,Performance,Demand
12,9,Low,2,1.874,19.440545800025575,Male,23,37,Effort,Demand
12,9,Low,1,5.258,19.440545800025575,Male,23,37,Pleasure,Affective
12,9,Low,2,4.143,19.440545800025575,Male,23,37,Frustration,Affective
12,9,Low,2,1.9,19.440545800025575,Male,23,37,Mental,Demand
12,9,Low,2,1.924,19.440545800025575,Male,23,37,Temporal,Demand
12,9,Low,2,0.92,19.440545800025575,Male,23,37,Physical,Demand
12,10,Medium,4,3.832,55.67788329999894,Male,23,104,Performance,Demand
12,10,Medium,2,2.31,55.67788329999894,Male,23,104,Frustration,Affective
12,10,Medium,2,1.107,55.67788329999894,Male,23,104,Temporal,Demand
12,10,Medium,2,1.93,55.67788329999894,Male,23,104,Effort,Demand
12,10,Medium,2,0.837,55.67788329999894,Male,23,104,Physical,Demand
12,10,Medium,1,1.498,55.67788329999894,Male,23,104,Pleasure,Affective
12,10,Medium,2,1.586,55.67788329999894,Male,23,104,Mental,Demand
12,11,Low,1,3.016,19.15745940001216,Male,23,36,Temporal,Demand
12,11,Low,1,1.633,19.15745940001216,Male,23,36,Frustration,Affective
12,11,Low,1,2.83,19.15745940001216,Male,23,36,Effort,Demand
12,11,Low,1,1.408,19.15745940001216,Male,23,36,Mental,Demand
12,11,Low,2,1.463,19.15745940001216,Male,23,36,Pleasure,Affective
12,11,Low,4,2.081,19.15745940001216,Male,23,36,Performance,Demand
12,11,Low,2,1.269,19.15745940001216,Male,23,36,Physical,Demand
12,12,High,4,2.623,147.7971631999826,Male,23,274,Effort,Demand
12,12,High,4,2.764,147.7971631999826,Male,23,274,Performance,Demand
12,12,High,3,1.566,147.7971631999826,Male,23,274,Mental,Demand
12,12,High,4,1.162,147.7971631999826,Male,23,274,Physical,Demand
12,12,High,4,1.565,147.7971631999826,Male,23,274,Frustration,Affective
12,12,High,1,2.603,147.7971631999826,Male,23,274,Pleasure,Affective
12,12,High,3,1.053,147.7971631999826,Male,23,274,Temporal,Demand
12,13,Medium,2,7.954,53.21188950003125,Male,23,102,Temporal,Demand
12,13,Medium,4,1.997,53.21188950003125,Male,23,102,Frustration,Affective
12,13,Medium,3,2.221,53.21188950003125,Male,23,102,Effort,Demand
12,13,Medium,2,1.305,53.21188950003125,Male,23,102,Pleasure,Affective
12,13,Medium,2,8.529,53.21188950003125,Male,23,102,Performance,Demand
12,13,Medium,2,1.951,53.21188950003125,Male,23,102,Mental,Demand
12,13,Medium,2,2.121,53.21188950003125,Male,23,102,Physical,Demand
12,14,High,1,3.011,134.63518620003015,Male,23,272,Pleasure,Affective
12,14,High,2,1.318,134.63518620003015,Male,23,272,Temporal,Demand
12,14,High,2,1.043,134.63518620003015,Male,23,272,Mental,Demand
12,14,High,3,1.311,134.63518620003015,Male,23,272,Frustration,Affective
12,14,High,4,1.79,134.63518620003015,Male,23,272,Effort,Demand
12,14,High,4,1.572,134.63518620003015,Male,23,272,Physical,Demand
12,14,High,3,1.549,134.63518620003015,Male,23,272,Performance,Demand
12,15,Low,1,3.981,14.476696799974889,Male,23,33,Physical,Demand
12,15,Low,2,3.324,14.476696799974889,Male,23,33,Mental,Demand
12,15,Low,2,1.205,14.476696799974889,Male,23,33,Frustration,Affective
12,15,Low,1,1.283,14.476696799974889,Male,23,33,Pleasure,Affective
12,15,Low,2,1.789,14.476696799974889,Male,23,33,Effort,Demand
12,15,Low,2,0.87,14.476696799974889,Male,23,33,Temporal,Demand
12,15,Low,4,1.704,14.476696799974889,Male,23,33,Performance,Demand
12,16,High,1,7.992,92.433330400032,Male,23,274,Frustration,Affective
12,16,High,3,3.01,92.433330400032,Male,23,274,Mental,Demand
12,16,High,3,1.286,92.433330400032,Male,23,274,Performance,Demand
12,16,High,4,1.322,92.433330400032,Male,23,274,Effort,Demand
12,16,High,3,2.083,92.433330400032,Male,23,274,Temporal,Demand
12,16,High,1,1.676,92.433330400032,Male,23,274,Pleasure,Affective
12,16,High,3,2.169,92.433330400032,Male,23,274,Physical,Demand
12,17,Low,3,4.165,66.8089054999873,Male,23,34,Mental,Demand
12,17,Low,1,1.724,66.8089054999873,Male,23,34,Pleasure,Affective
12,17,Low,2,1.389,66.8089054999873,Male,23,34,Temporal,Demand
12,17,Low,4,1.433,66.8089054999873,Male,23,34,Effort,Demand
12,17,Low,2,1.042,66.8089054999873,Male,23,34,Physical,Demand
12,17,Low,4,1.604,66.8089054999873,Male,23,34,Performance,Demand
12,17,Low,3,1.773,66.8089054999873,Male,23,34,Frustration,Affective
12,18,Medium,1,6.34,55.444148499984294,Male,23,102,Pleasure,Affective
12,18,Medium,3,1.918,55.444148499984294,Male,23,102,Effort,Demand
12,18,Medium,4,2.311,55.444148499984294,Male,23,102,Mental,Demand
12,18,Medium,3,1.33,55.444148499984294,Male,23,102,Physical,Demand
12,18,Medium,3,1.809,55.444148499984294,Male,23,102,Frustration,Affective
12,18,Medium,3,2.025,55.444148499984294,Male,23,102,Performance,Demand
12,18,Medium,2,3.908,55.444148499984294,Male,23,102,Temporal,Demand
13,1,Low,2,6.498,64.00947199999996,Male,20,76,Pleasure,Affective
13,1,Low,3,3.929,64.00947199999996,Male,20,76,Physical,Demand
13,1,Low,2,2.929,64.00947199999996,Male,20,76,Mental,Demand
13,1,Low,3,4.888,64.00947199999996,Male,20,76,Effort,Demand
13,1,Low,4,3.89,64.00947199999996,Male,20,76,Performance,Demand
13,1,Low,2,5.911,64.00947199999996,Male,20,76,Temporal,Demand
13,1,Low,4,4.984,64.00947199999996,Male,20,76,Frustration,Affective
13,2,Medium,2,5.747,79.4039199,Male,20,101,Temporal,Demand
13,2,Medium,3,3.555,79.4039199,Male,20,101,Frustration,Affective
13,2,Medium,2,5.554,79.4039199,Male,20,101,Effort,Demand
13,2,Medium,3,1.873,79.4039199,Male,20,101,Physical,Demand
13,2,Medium,2,4.864,79.4039199,Male,20,101,Pleasure,Affective
13,2,Medium,4,2.358,79.4039199,Male,20,101,Performance,Demand
13,2,Medium,2,3.205,79.4039199,Male,20,101,Mental,Demand
13,3,High,4,3.975,229.95511009999996,Male,20,273,Performance,Demand
13,3,High,3,3.865,229.95511009999996,Male,20,273,Frustration,Affective
13,3,High,2,2.488,229.95511009999996,Male,20,273,Pleasure,Affective
13,3,High,3,4.678,229.95511009999996,Male,20,273,Physical,Demand
13,3,High,2,3.468,229.95511009999996,Male,20,273,Effort,Demand
13,3,High,2,5.971,229.95511009999996,Male,20,273,Mental,Demand
13,3,High,2,2.887,229.95511009999996,Male,20,273,Temporal,Demand
13,4,Low,2,3.451,26.690539500000114,Male,20,32,Physical,Demand
13,4,Low,1,2.113,26.690539500000114,Male,20,32,Mental,Demand
13,4,Low,2,3.756,26.690539500000114,Male,20,32,Effort,Demand
13,4,Low,4,2.241,26.690539500000114,Male,20,32,Performance,Demand
13,4,Low,2,4.029,26.690539500000114,Male,20,32,Pleasure,Affective
13,4,Low,2,4.505,26.690539500000114,Male,20,32,Temporal,Demand
13,4,Low,2,4.05,26.690539500000114,Male,20,32,Frustration,Affective
13,5,High,2,4.145,223.55596449999985,Male,20,272,Frustration,Affective
13,5,High,1,2.552,223.55596449999985,Male,20,272,Mental,Demand
13,5,High,2,1.62,223.55596449999985,Male,20,272,Pleasure,Affective
13,5,High,3,2.373,223.55596449999985,Male,20,272,Physical,Demand
13,5,High,3,2.036,223.55596449999985,Male,20,272,Performance,Demand
13,5,High,2,3.992,223.55596449999985,Male,20,272,Effort,Demand
13,5,High,2,3.777,223.55596449999985,Male,20,272,Temporal,Demand
13,6,Medium,4,5.085,89.48564099999999,Male,20,102,Performance,Demand
13,6,Medium,2,2.391,89.48564099999999,Male,20,102,Physical,Demand
13,6,Medium,2,1.575,89.48564099999999,Male,20,102,Temporal,Demand
13,6,Medium,2,3.684,89.48564099999999,Male,20,102,Frustration,Affective
13,6,Medium,2,1.725,89.48564099999999,Male,20,102,Pleasure,Affective
13,6,Medium,1,1.295,89.48564099999999,Male,20,102,Mental,Demand
13,6,Medium,2,4.89,89.48564099999999,Male,20,102,Effort,Demand
13,7,High,3,3.524,223.89098769999987,Male,20,272,Frustration,Affective
13,7,High,3,3.528,223.89098769999987,Male,20,272,Physical,Demand
13,7,High,2,4.641,223.89098769999987,Male,20,272,Temporal,Demand
13,7,High,3,1.968,223.89098769999987,Male,20,272,Performance,Demand
13,7,High,2,1.947,223.89098769999987,Male,20,272,Pleasure,Affective
13,7,High,2,4.59,223.89098769999987,Male,20,272,Effort,Demand
13,7,High,2,2.323,223.89098769999987,Male,20,272,Mental,Demand
13,8,Medium,3,4.593,87.35163620000003,Male,20,102,Performance,Demand
13,8,Medium,3,2.456,87.35163620000003,Male,20,102,Frustration,Affective
13,8,Medium,2,1.805,87.35163620000003,Male,20,102,Physical,Demand
13,8,Medium,2,1.223,87.35163620000003,Male,20,102,Temporal,Demand
13,8,Medium,1,1.547,87.35163620000003,Male,20,102,Mental,Demand
13,8,Medium,2,1.276,87.35163620000003,Male,20,102,Pleasure,Affective
13,8,Medium,3,3.256,87.35163620000003,Male,20,102,Effort,Demand
13,9,Low,3,4.483,27.63815620000014,Male,20,37,Pleasure,Affective
13,9,Low,3,1.443,27.63815620000014,Male,20,37,Performance,Demand
13,9,Low,2,4.625,27.63815620000014,Male,20,37,Effort,Demand
13,9,Low,1,1.244,27.63815620000014,Male,20,37,Mental,Demand
13,9,Low,2,2.277,27.63815620000014,Male,20,37,Frustration,Affective
13,9,Low,2,2.327,27.63815620000014,Male,20,37,Physical,Demand
13,9,Low,2,1.774,27.63815620000014,Male,20,37,Temporal,Demand
13,10,Medium,1,3.48,88.45285899999999,Male,20,103,Mental,Demand
13,10,Medium,4,4.539,88.45285899999999,Male,20,103,Performance,Demand
13,10,Medium,3,3.32,88.45285899999999,Male,20,103,Frustration,Affective
13,10,Medium,2,1.444,88.45285899999999,Male,20,103,Temporal,Demand
13,10,Medium,2,1.286,88.45285899999999,Male,20,103,Pleasure,Affective
13,10,Medium,2,1.296,88.45285899999999,Male,20,103,Physical,Demand
13,10,Medium,2,3.984,88.45285899999999,Male,20,103,Effort,Demand
13,11,Low,2,2.769,26.34060260000024,Male,20,33,Physical,Demand
13,11,Low,3,1.099,26.34060260000024,Male,20,33,Frustration,Affective
13,11,Low,2,1.122,26.34060260000024,Male,20,33,Pleasure,Affective
13,11,Low,2,1.61,26.34060260000024,Male,20,33,Effort,Demand
13,11,Low,2,1.155,26.34060260000024,Male,20,33,Temporal,Demand
13,11,Low,4,2.525,26.34060260000024,Male,20,33,Performance,Demand
13,11,Low,1,1.258,26.34060260000024,Male,20,33,Mental,Demand
13,12,High,2,2.751,217.0752795000003,Male,20,272,Pleasure,Affective
13,12,High,2,3.218,217.0752795000003,Male,20,272,Temporal,Demand
13,12,High,3,4.953,217.0752795000003,Male,20,272,Physical,Demand
13,12,High,2,1.402,217.0752795000003,Male,20,272,Effort,Demand
13,12,High,3,5.042,217.0752795000003,Male,20,272,Frustration,Affective
13,12,High,1,1.339,217.0752795000003,Male,20,272,Mental,Demand
13,12,High,3,1.604,217.0752795000003,Male,20,272,Performance,Demand
13,13,Medium,2,10.211,81.67011000000002,Male,20,114,Frustration,Affective
13,13,Medium,2,2.155,81.67011000000002,Male,20,114,Physical,Demand
13,13,Medium,2,1.704,81.67011000000002,Male,20,114,Effort,Demand
13,13,Medium,1,0.993,81.67011000000002,Male,20,114,Mental,Demand
13,13,Medium,2,1.476,81.67011000000002,Male,20,114,Pleasure,Affective
13,13,Medium,3,1.359,81.67011000000002,Male,20,114,Performance,Demand
13,13,Medium,2,1.141,81.67011000000002,Male,20,114,Temporal,Demand
13,14,High,1,2.798,211.71140699999975,Male,20,273,Mental,Demand
13,14,High,2,1.05,211.71140699999975,Male,20,273,Temporal,Demand
13,14,High,4,2.146,211.71140699999975,Male,20,273,Performance,Demand
13,14,High,2,1.938,211.71140699999975,Male,20,273,Pleasure,Affective
13,14,High,3,1.891,211.71140699999975,Male,20,273,Physical,Demand
13,14,High,2,3.515,211.71140699999975,Male,20,273,Frustration,Affective
13,14,High,2,1.624,211.71140699999975,Male,20,273,Effort,Demand
13,15,Low,3,5.401,26.823270599999887,Male,20,32,Pleasure,Affective
13,15,Low,2,2.161,26.823270599999887,Male,20,32,Temporal,Demand
13,15,Low,1,1.189,26.823270599999887,Male,20,32,Mental,Demand
13,15,Low,2,1.829,26.823270599999887,Male,20,32,Effort,Demand
13,15,Low,2,2.337,26.823270599999887,Male,20,32,Physical,Demand
13,15,Low,2,2.541,26.823270599999887,Male,20,32,Frustration,Affective
13,15,Low,4,3.404,26.823270599999887,Male,20,32,Performance,Demand
13,16,High,1,3.134,218.90992589999996,Male,20,272,Mental,Demand
13,16,High,4,2.623,218.90992589999996,Male,20,272,Performance,Demand
13,16,High,2,1.358,218.90992589999996,Male,20,272,Frustration,Affective
13,16,High,2,1.422,218.90992589999996,Male,20,272,Pleasure,Affective
13,16,High,2,1.416,218.90992589999996,Male,20,272,Temporal,Demand
13,16,High,2,1.554,218.90992589999996,Male,20,272,Physical,Demand
13,16,High,2,1.631,218.90992589999996,Male,20,272,Effort,Demand
13,17,Low,2,5.708,26.50565450000022,Male,20,33,Effort,Demand
13,17,Low,2,1.334,26.50565450000022,Male,20,33,Physical,Demand
13,17,Low,2,1.621,26.50565450000022,Male,20,33,Pleasure,Affective
13,17,Low,2,0.99,26.50565450000022,Male,20,33,Temporal,Demand
13,17,Low,2,1.46,26.50565450000022,Male,20,33,Frustration,Affective
13,17,Low,1,1.033,26.50565450000022,Male,20,33,Mental,Demand
13,17,Low,4,1.402,26.50565450000022,Male,20,33,Performance,Demand
13,18,Medium,4,5.453,80.3033519999999,Male,20,104,Performance,Demand
13,18,Medium,2,1.489,80.3033519999999,Male,20,104,Temporal,Demand
13,18,Medium,2,0.964,80.3033519999999,Male,20,104,Physical,Demand
13,18,Medium,1,0.986,80.3033519999999,Male,20,104,Mental,Demand
13,18,Medium,2,1.218,80.3033519999999,Male,20,104,Frustration,Affective
13,18,Medium,2,3.5,80.3033519999999,Male,20,104,Effort,Demand
13,18,Medium,2,3.54,80.3033519999999,Male,20,104,Pleasure,Affective
14,1,Low,4,2.866,22.689358000003267,Female,20,34,Temporal,Demand
14,1,Low,2,6.052,22.689358000003267,Female,20,34,Frustration,Affective
14,1,Low,5,2.877,22.689358000003267,Female,20,34,Performance,Demand
14,1,Low,2,2.658,22.689358000003267,Female,20,34,Physical,Demand
14,1,Low,2,5.749,22.689358000003267,Female,20,34,Mental,Demand
14,1,Low,3,3.217,22.689358000003267,Female,20,34,Pleasure,Affective
14,1,Low,1,5.15,22.689358000003267,Female,20,34,Effort,Demand
14,2,Medium,2,7.104,63.85717810000642,Female,20,103,Mental,Demand
14,2,Medium,3,6.912,63.85717810000642,Female,20,103,Effort,Demand
14,2,Medium,5,2.041,63.85717810000642,Female,20,103,Performance,Demand
14,2,Medium,3,3.621,63.85717810000642,Female,20,103,Physical,Demand
14,2,Medium,2,3.218,63.85717810000642,Female,20,103,Frustration,Affective
14,2,Medium,2,5.319,63.85717810000642,Female,20,103,Pleasure,Affective
14,2,Medium,4,3.283,63.85717810000642,Female,20,103,Temporal,Demand
14,3,High,4,6.392,170.322508799989,Female,20,272,Effort,Demand
14,3,High,2,5.187,170.322508799989,Female,20,272,Frustration,Affective
14,3,High,2,2.888,170.322508799989,Female,20,272,Pleasure,Affective
14,3,High,4,3.075,170.322508799989,Female,20,272,Physical,Demand
14,3,High,4,2.135,170.322508799989,Female,20,272,Temporal,Demand
14,3,High,5,1.873,170.322508799989,Female,20,272,Performance,Demand
14,3,High,2,5.558,170.322508799989,Female,20,272,Mental,Demand
14,4,Low,1,8.517,20.73949749997701,Female,20,34,Mental,Demand
14,4,Low,1,4.128,20.73949749997701,Female,20,34,Effort,Demand
14,4,Low,3,5.335,20.73949749997701,Female,20,34,Pleasure,Affective
14,4,Low,4,3.852,20.73949749997701,Female,20,34,Temporal,Demand
14,4,Low,5,2.078,20.73949749997701,Female,20,34,Performance,Demand
14,4,Low,2,7.848,20.73949749997701,Female,20,34,Frustration,Affective
14,4,Low,2,4.373,20.73949749997701,Female,20,34,Physical,Demand
14,5,High,5,10.716,160.10911310001393,Female,20,274,Performance,Demand
14,5,High,3,3.12,160.10911310001393,Female,20,274,Mental,Demand
14,5,High,3,3.253,160.10911310001393,Female,20,274,Frustration,Affective
14,5,High,4,3.974,160.10911310001393,Female,20,274,Physical,Demand
14,5,High,4,1.908,160.10911310001393,Female,20,274,Temporal,Demand
14,5,High,2,2.835,160.10911310001393,Female,20,274,Pleasure,Affective
14,5,High,3,6.148,160.10911310001393,Female,20,274,Effort,Demand
14,6,Medium,2,5.817,60.0759146999917,Female,20,103,Frustration,Affective
14,6,Medium,3,3.515,60.0759146999917,Female,20,103,Pleasure,Affective
14,6,Medium,2,2.046,60.0759146999917,Female,20,103,Mental,Demand
14,6,Medium,3,2.634,60.0759146999917,Female,20,103,Physical,Demand
14,6,Medium,2,2.618,60.0759146999917,Female,20,103,Effort,Demand
14,6,Medium,5,2.101,60.0759146999917,Female,20,103,Performance,Demand
14,6,Medium,4,2.32,60.0759146999917,Female,20,103,Temporal,Demand
14,7,High,2,3.264,154.6411196000117,Female,20,273,Frustration,Affective
14,7,High,5,1.956,154.6411196000117,Female,20,273,Performance,Demand
14,7,High,2,5.738,154.6411196000117,Female,20,273,Physical,Demand
14,7,High,2,2.778,154.6411196000117,Female,20,273,Mental,Demand
14,7,High,2,6.153,154.6411196000117,Female,20,273,Pleasure,Affective
14,7,High,3,3.568,154.6411196000117,Female,20,273,Effort,Demand
14,7,High,4,2.737,154.6411196000117,Female,20,273,Temporal,Demand
14,8,Medium,4,2.304,60.39244820000022,Female,20,104,Temporal,Demand
14,8,Medium,5,2.222,60.39244820000022,Female,20,104,Performance,Demand
14,8,Medium,2,3.174,60.39244820000022,Female,20,104,Frustration,Affective
14,8,Medium,3,1.977,60.39244820000022,Female,20,104,Effort,Demand
14,8,Medium,2,2.294,60.39244820000022,Female,20,104,Mental,Demand
14,8,Medium,2,1.737,60.39244820000022,Female,20,104,Pleasure,Affective
14,8,Medium,3,2.353,60.39244820000022,Female,20,104,Physical,Demand
14,9,Low,2,4.615,17.656321500020567,Female,20,33,Physical,Demand
14,9,Low,4,1.872,17.656321500020567,Female,20,33,Temporal,Demand
14,9,Low,1,2.144,17.656321500020567,Female,20,33,Frustration,Affective
14,9,Low,5,1.468,17.656321500020567,Female,20,33,Performance,Demand
14,9,Low,2,2.87,17.656321500020567,Female,20,33,Pleasure,Affective
14,9,Low,2,4.187,17.656321500020567,Female,20,33,Effort,Demand
14,9,Low,1,2.587,17.656321500020567,Female,20,33,Mental,Demand
14,10,Medium,3,2.098,58.276191599987214,Female,20,104,Physical,Demand
14,10,Medium,2,3.583,58.276191599987214,Female,20,104,Pleasure,Affective
14,10,Medium,5,2.705,58.276191599987214,Female,20,104,Performance,Demand
14,10,Medium,3,2.754,58.276191599987214,Female,20,104,Effort,Demand
14,10,Medium,4,1.46,58.276191599987214,Female,20,104,Temporal,Demand
14,10,Medium,2,2.443,58.276191599987214,Female,20,104,Mental,Demand
14,10,Medium,2,1.358,58.276191599987214,Female,20,104,Frustration,Affective
14,11,Low,1,3.085,21.722808500024257,Female,20,34,Mental,Demand
14,11,Low,5,1.636,21.722808500024257,Female,20,34,Performance,Demand
14,11,Low,2,4.135,21.722808500024257,Female,20,34,Pleasure,Affective
14,11,Low,2,3.031,21.722808500024257,Female,20,34,Effort,Demand
14,11,Low,2,5.144,21.722808500024257,Female,20,34,Physical,Demand
14,11,Low,4,1.171,21.722808500024257,Female,20,34,Temporal,Demand
14,11,Low,2,4.141,21.722808500024257,Female,20,34,Frustration,Affective
14,12,High,4,2.257,147.81147290000808,Female,20,275,Physical,Demand
14,12,High,1,3.933,147.81147290000808,Female,20,275,Pleasure,Affective
14,12,High,3,8.441,147.81147290000808,Female,20,275,Mental,Demand
14,12,High,3,1.134,147.81147290000808,Female,20,275,Temporal,Demand
14,12,High,3,4.998,147.81147290000808,Female,20,275,Frustration,Affective
14,12,High,5,2.454,147.81147290000808,Female,20,275,Performance,Demand
14,12,High,4,2.029,147.81147290000808,Female,20,275,Effort,Demand
14,13,Medium,4,2.025,56.52604050000082,Female,20,104,Temporal,Demand
14,13,Medium,5,1.617,56.52604050000082,Female,20,104,Performance,Demand
14,13,Medium,2,4.131,56.52604050000082,Female,20,104,Mental,Demand
14,13,Medium,3,1.783,56.52604050000082,Female,20,104,Physical,Demand
14,13,Medium,2,2.008,56.52604050000082,Female,20,104,Pleasure,Affective
14,13,Medium,3,5.829,56.52604050000082,Female,20,104,Effort,Demand
14,13,Medium,3,2.398,56.52604050000082,Female,20,104,Frustration,Affective
14,14,High,4,2.065,150.2951100000064,Female,20,274,Physical,Demand
14,14,High,1,2.977,150.2951100000064,Female,20,274,Pleasure,Affective
14,14,High,4,3.006,150.2951100000064,Female,20,274,Mental,Demand
14,14,High,4,2.555,150.2951100000064,Female,20,274,Frustration,Affective
14,14,High,4,1.594,150.2951100000064,Female,20,274,Temporal,Demand
14,14,High,3,4.122,150.2951100000064,Female,20,274,Effort,Demand
14,14,High,5,1.842,150.2951100000064,Female,20,274,Performance,Demand
14,15,Low,2,10.194,20.78945310000563,Female,20,37,Mental,Demand
14,15,Low,4,6.089,20.78945310000563,Female,20,37,Temporal,Demand
14,15,Low,3,4.214,20.78945310000563,Female,20,37,Frustration,Affective
14,15,Low,3,2.422,20.78945310000563,Female,20,37,Effort,Demand
14,15,Low,2,6.547,20.78945310000563,Female,20,37,Pleasure,Affective
14,15,Low,3,2.622,20.78945310000563,Female,20,37,Physical,Demand
14,15,Low,5,4.504,20.78945310000563,Female,20,37,Performance,Demand
14,16,High,2,3.582,144.1128434000129,Female,20,275,Pleasure,Affective
14,16,High,3,3.339,144.1128434000129,Female,20,275,Effort,Demand
14,16,High,5,2.033,144.1128434000129,Female,20,275,Performance,Demand
14,16,High,3,2.058,144.1128434000129,Female,20,275,Physical,Demand
14,16,High,2,2.968,144.1128434000129,Female,20,275,Frustration,Affective
14,16,High,4,1.917,144.1128434000129,Female,20,275,Temporal,Demand
14,16,High,2,2.871,144.1128434000129,Female,20,275,Mental,Demand
14,17,Low,3,2.241,18.407443799980683,Female,20,36,Pleasure,Affective
14,17,Low,1,3.207,18.407443799980683,Female,20,36,Mental,Demand
14,17,Low,2,2.615,18.407443799980683,Female,20,36,Effort,Demand
14,17,Low,2,1.324,18.407443799980683,Female,20,36,Physical,Demand
14,17,Low,5,2.564,18.407443799980683,Female,20,36,Performance,Demand
14,17,Low,2,2.578,18.407443799980683,Female,20,36,Frustration,Affective
14,17,Low,4,1.535,18.407443799980683,Female,20,36,Temporal,Demand
14,18,Medium,2,6.375,53.02924340000027,Female,20,104,Effort,Demand
14,18,Medium,2,2.146,53.02924340000027,Female,20,104,Mental,Demand
14,18,Medium,4,1.453,53.02924340000027,Female,20,104,Temporal,Demand
14,18,Medium,2,3.062,53.02924340000027,Female,20,104,Pleasure,Affective
14,18,Medium,2,3.396,53.02924340000027,Female,20,104,Frustration,Affective
14,18,Medium,5,13.103,53.02924340000027,Female,20,104,Performance,Demand
